timestamp(unix),attitude_roll(radians),attitude_pitch(radians),attitude_yaw(radians),rotation_rate_x(radians/s),rotation_rate_y(radians/s),rotation_rate_z(radians/s),gravity_x(G),gravity_y(G),gravity_z(G),user_acc_x(G),user_acc_y(G),user_acc_z(G),magnetic_field_x(microteslas),magnetic_field_y(microteslas),magnetic_field_z(microteslas),latitude(degree),longitude(degree),altitude(meter),speed(m/s),course(degree),timestamp(unix),User Mark
1508446972.334363,0.397513,1.289562,2.538113,0.296607,-0.441385,-0.105100,0.107444,-0.960714,-0.255901,0.040658,0.039983,0.029278,9.724274,-31.524467,-7.592448,,,,,,,5
,,,,,,,,,,,,,,,,42.293130,-71.264184,60.388348,-1.000000,-1.000000,1508446970.541918,5
,,,,,,,,,,,,,,,,42.293288,-71.264176,60.388348,-1.000000,-1.000000,1508446942.869615,5
,,,,,,,,,,,,,,,,42.293130,-71.264184,60.388348,-1.000000,-1.000000,1508446970.541918,5
1508446972.354375,0.395607,1.292465,2.533353,0.039631,-0.219761,0.044140,0.105881,-0.961515,-0.253531,0.112274,-0.023897,0.026556,9.740160,-31.546223,-7.480898,,,,,,,5
1508446972.374272,0.409200,1.293963,2.513870,0.146264,-0.412212,0.011861,0.108744,-0.961926,-0.250746,0.089636,0.048123,0.054304,9.827115,-31.532545,-7.424635,,,,,,,5
1508446972.394285,0.406996,1.297890,2.502245,0.298929,-0.824876,-0.102184,0.106695,-0.962991,-0.247515,-0.034795,0.042017,0.079912,9.809938,-31.538559,-7.421809,,,,,,,5
1508446972.414290,0.403797,1.303241,2.486383,0.322365,-0.937406,-0.076521,0.103876,-0.964420,-0.243113,-0.080469,0.015079,0.105616,9.716692,-31.576397,-7.383489,,,,,,,5
1508446972.434312,0.399900,1.307591,2.473024,0.232850,-0.768430,-0.080337,0.101294,-0.965561,-0.239649,-0.025366,-0.026901,0.102946,9.612669,-31.613008,-7.362956,,,,,,,5
,,,,,,,,,,,,,,,,42.292949,-71.264194,60.388348,-1.000000,-1.000000,1508446972.404171,5
1508446972.454341,0.399010,1.311081,2.459239,0.244572,-0.696290,-0.106805,0.099771,-0.966463,-0.236633,-0.030313,-0.036161,0.101867,9.572168,-31.625555,-7.361842,,,,,,,5
,,,,,,,,,,,,,,,,42.292902,-71.264174,60.388348,-1.000000,-1.000000,1508446972.425788,5
1508446972.474347,0.401773,1.315260,2.441626,0.290416,-0.719781,-0.134127,0.098844,-0.967528,-0.232637,0.012728,-0.012804,0.046357,9.539227,-31.641592,-7.335636,,,,,,,5
,,,,,,,,,,,,,,,,42.292855,-71.264154,60.388348,-1.000000,-1.000000,1508446972.445502,5
,,,,,,,,,,,,,,,,42.292809,-71.264134,60.388348,-1.000000,-1.000000,1508446972.465059,5
1508446972.494363,0.406283,1.319404,2.421926,0.296837,-0.736829,-0.147929,0.098306,-0.968567,-0.228503,0.030112,0.043472,-0.018460,9.517461,-31.660751,-7.281044,,,,,,,5
1508446972.514377,0.413649,1.325130,2.397672,0.448141,-0.870849,-0.172335,0.097756,-0.969975,-0.222691,0.022956,0.064687,-0.054576,9.506529,-31.674652,-7.234714,,,,,,,5
1508446972.534388,0.426110,1.333627,2.364720,0.585601,-1.019714,-0.191543,0.097113,-0.972007,-0.213942,0.022379,0.058326,-0.115144,9.489102,-31.708984,-7.106067,,,,,,,5
1508446972.554401,0.440439,1.341940,2.329692,0.494002,-0.947437,-0.194374,0.096720,-0.973927,-0.205213,0.034216,0.059361,-0.173923,9.464982,-31.763447,-6.891758,,,,,,,5
1508446972.574414,0.456010,1.346138,2.295867,0.269467,-0.814913,-0.304731,0.098102,-0.974870,-0.200010,0.072598,0.045641,-0.233996,9.470970,-31.778645,-6.813020,,,,,,,5
1508446972.594423,0.481640,1.345615,2.254664,0.148349,-0.693328,-0.489840,0.103432,-0.974754,-0.197882,0.170799,0.007591,-0.260813,9.533741,-31.762880,-6.798971,,,,,,,5
1508446972.614438,0.515569,1.343246,2.205324,0.194254,-0.728617,-0.549113,0.111224,-0.974222,-0.196268,0.247053,-0.028952,-0.281104,9.858436,-31.652161,-6.852056,,,,,,,5
1508446972.634447,0.548835,1.343317,2.154506,0.352801,-0.873893,-0.449958,0.117654,-0.974238,-0.192400,0.212028,-0.022008,-0.274198,9.920362,-31.631660,-6.857352,,,,,,,5
,,,,,,,,,,,,,,,,42.293306,-71.264181,60.108429,-1.000000,-1.000000,1508446972.630746,5
1508446972.654433,0.575169,1.345662,2.106764,0.378319,-1.105192,-0.363678,0.121436,-0.974764,-0.187318,0.132623,0.025195,-0.265685,10.184815,-31.557959,-6.809078,,,,,,,5
1508446972.674473,0.589671,1.347067,2.064713,0.276264,-1.474781,-0.349893,0.123378,-0.975077,-0.184399,0.140340,0.074503,-0.226627,10.265573,-31.525709,-6.837132,,,,,,,5
1508446972.694484,0.588241,1.347097,2.029671,0.188037,-1.965334,-0.293496,0.123098,-0.975084,-0.184551,0.214366,0.116410,-0.158970,10.270185,-31.517208,-6.869319,,,,,,,5
1508446972.714496,0.569560,1.347088,2.002254,0.159443,-2.458056,-0.240868,0.119634,-0.975082,-0.186826,0.263469,0.186431,-0.074862,10.154146,-31.466745,-7.261958,,,,,,,5
1508446972.734512,0.541969,1.346955,1.973893,0.157650,-2.921442,-0.300859,0.114501,-0.975052,-0.190167,0.298371,0.188492,0.085781,9.868038,-31.433388,-7.782207,,,,,,,5
1508446972.754520,0.514627,1.345880,1.939646,0.136564,-3.054506,-0.382054,0.109775,-0.974813,-0.194138,0.311276,0.168767,0.126755,9.596819,-31.392235,-8.272084,,,,,,,5
1508446972.774519,0.489823,1.344164,1.904986,0.097027,-2.816478,-0.369423,0.105713,-0.974429,-0.198276,0.309448,0.125201,0.184314,9.395589,-31.353296,-8.642490,,,,,,,5
1508446972.794545,0.466241,1.342736,1.875694,0.097820,-2.521962,-0.297856,0.101634,-0.974107,-0.201957,0.158147,0.086518,0.175681,9.062984,-31.292725,-9.199264,,,,,,,5
1508446972.814556,0.444184,1.343614,1.846108,0.262856,-2.577237,-0.282694,0.096787,-0.974305,-0.203377,0.107528,0.082673,0.185066,8.844164,-31.271721,-9.479395,,,,,,,5
1508446972.834547,0.430876,1.349077,1.805874,0.543990,-2.639019,-0.287873,0.091848,-0.975521,-0.199807,-0.009404,0.060970,0.179895,8.844164,-31.271721,-9.479395,,,,,,,5
1508446972.854567,0.424626,1.359583,1.758677,0.754657,-2.593190,-0.213697,0.086370,-0.977777,-0.191028,-0.102514,0.031153,0.035358,8.844164,-31.271721,-9.479395,,,,,,,5
1508446972.874592,0.421039,1.372904,1.711056,0.826853,-2.425135,-0.143766,0.080354,-0.980483,-0.179433,-0.114091,0.017592,-0.060008,8.844164,-31.271721,-9.479395,,,,,,,5
1508446972.894576,0.427749,1.387829,1.661057,0.907464,-1.886493,-0.120333,0.075477,-0.983308,-0.165555,-0.142554,-0.005690,-0.118930,8.844164,-31.271721,-9.479395,,,,,,,5
1508446972.914601,0.453747,1.403591,1.605478,0.898523,-1.169286,-0.083663,0.072951,-0.986054,-0.149587,-0.231139,-0.073883,-0.060817,8.844164,-31.271721,-9.479395,,,,,,,5
1508446972.934628,0.485130,1.417412,1.559973,0.704103,-0.337999,0.042065,0.071247,-0.988260,-0.135155,-0.307331,-0.109397,-0.068138,8.844164,-31.271721,-9.479395,,,,,,,5
1508446972.954634,0.526720,1.430987,1.525785,0.763007,0.804280,0.128595,0.070053,-0.990243,-0.120466,-0.327240,-0.084953,0.005445,8.844164,-31.271721,-9.479395,,,,,,,5
1508446972.974653,0.607844,1.446198,1.467613,0.875773,1.276680,0.048962,0.070974,-0.992248,-0.102016,-0.261236,0.130446,0.216503,8.844164,-31.271721,-9.479395,,,,,,,5
1508446972.994644,0.716569,1.458870,1.381906,0.728042,1.077762,-0.048235,0.073360,-0.993743,-0.084223,-0.128963,0.258117,0.333293,8.844164,-31.271721,-9.479395,,,,,,,5
1508446973.014662,0.818625,1.463241,1.299836,0.298257,1.031611,-0.247730,0.078386,-0.994222,-0.073343,0.234572,0.186391,0.168451,8.844164,-31.271721,-9.479395,,,,,,,5
1508446973.034688,0.891243,1.463289,1.243000,0.313142,0.512685,-0.087223,0.083464,-0.994227,-0.067433,0.561586,-0.003530,0.021443,8.844164,-31.271721,-9.479395,,,,,,,5
1508446973.054674,0.994422,1.478479,1.131253,1.358383,-0.988883,0.536756,0.077293,-0.995742,-0.050241,0.701500,-0.082353,-0.036078,8.844164,-31.271721,-9.479395,,,,,,,5
1508446973.074710,1.426738,1.512760,0.657335,2.710361,-2.661659,1.157814,0.057403,-0.998316,-0.008327,0.513138,0.044901,-0.006367,8.844164,-31.271721,-9.479395,,,,,,,5
1508446973.094716,2.558988,1.509188,-0.540232,3.240792,-3.137761,1.187387,0.033876,-0.998103,0.051413,0.058944,0.176493,0.249888,8.844164,-31.271721,-9.479395,,,,,,,5
1508446973.114734,2.953094,1.462686,-0.978695,2.372103,-1.403476,0.608695,0.020219,-0.994162,0.105989,-0.251832,0.180578,0.377776,8.844164,-31.271721,-9.479395,,,,,,,5
1508446973.134746,3.021834,1.433142,-1.051592,1.050913,0.368160,0.010325,0.016394,-0.990541,0.136237,-0.520483,-0.031936,0.213540,8.844164,-31.271721,-9.479395,,,,,,,5
1508446973.154744,3.021524,1.420901,-1.043977,0.513613,0.244542,-0.181598,0.017887,-0.988787,0.148259,-0.645512,-0.393370,-0.334310,8.844164,-31.271721,-9.479395,,,,,,,5
1508446973.174771,2.997361,1.405095,-1.015849,0.877089,0.140614,-0.378848,0.023708,-0.986303,0.163231,-0.256908,-0.036585,0.031105,8.844164,-31.271721,-9.479395,,,,,,,5
1508446973.194777,2.982006,1.387070,-1.000820,0.851248,-0.089095,-0.149251,0.029032,-0.983170,0.180373,-0.170756,0.064224,0.101152,8.844164,-31.271721,-9.479395,,,,,,,5
1508446973.214772,3.000903,1.367598,-1.019088,1.124342,0.123046,0.102314,0.028298,-0.979426,0.199809,-0.059044,0.154017,-0.026744,8.844164,-31.271721,-9.479395,,,,,,,5
1508446973.234806,3.030175,1.341287,-1.050018,1.446945,-0.193304,0.200549,0.025295,-0.973778,0.226089,-0.035412,0.041939,-0.208053,8.844164,-31.271721,-9.479395,,,,,,,5
1508446973.254805,3.055490,1.312726,-1.083367,1.411773,-0.426694,0.287391,0.021948,-0.966884,0.254270,-0.016744,-0.065449,-0.264707,8.844164,-31.271721,-9.479395,,,,,,,5
1508446973.274831,3.071776,1.290179,-1.111378,0.950843,-0.594342,0.274942,0.019320,-0.960885,0.276274,0.042768,-0.188621,-0.262541,8.844164,-31.271721,-9.479395,,,,,,,5
1508446973.294842,3.080305,1.279012,-1.134477,0.390818,-0.744808,0.300018,0.017619,-0.957732,0.287121,0.122701,0.039321,-0.184079,8.844164,-31.271721,-9.479395,,,,,,,5
1508446973.314853,3.080424,1.272080,-1.153521,0.435836,-1.022421,0.208612,0.017990,-0.955715,0.293744,0.129715,0.147426,-0.128277,8.844164,-31.271721,-9.479395,,,,,,,5
1508446973.334867,3.066672,1.257515,-1.164191,0.928139,-1.271797,0.057034,0.023068,-0.951327,0.307318,0.003757,0.196795,0.034265,8.844164,-31.271721,-9.479395,,,,,,,5
1508446973.354870,3.049405,1.235189,-1.172466,1.185779,-1.189097,0.049641,0.030318,-0.944210,0.327944,-0.080184,0.108303,0.108900,8.844164,-31.271721,-9.479395,,,,,,,5
1508446973.374889,3.041869,1.211999,-1.183807,1.153546,-0.720479,0.081671,0.034960,-0.936320,0.349404,-0.099199,0.084727,0.132499,8.844164,-31.271721,-9.479395,,,,,,,5
1508446973.394903,3.039810,1.188675,-1.192229,1.206765,-0.409518,0.003555,0.037888,-0.927876,0.370960,-0.060532,0.008168,0.115765,8.844164,-31.271721,-9.479395,,,,,,,5
1508446973.414903,3.037785,1.163409,-1.197848,1.286646,-0.345933,-0.028745,0.041056,-0.918159,0.394079,0.028173,-0.084893,0.004618,8.844164,-31.271721,-9.479395,,,,,,,5
1508446973.434925,3.036872,1.138489,-1.203712,1.222670,-0.286287,0.005909,0.043794,-0.908001,0.416672,0.041975,-0.075580,-0.062500,8.844164,-31.271721,-9.479395,,,,,,,5
1508446973.454938,3.036586,1.114006,-1.210286,1.267434,-0.360687,0.001963,0.046230,-0.897473,0.438641,0.042271,0.050991,-0.221783,8.844164,-31.271721,-9.479395,,,,,,,5
1508446973.474950,3.029082,1.085990,-1.214098,1.489262,-0.689458,-0.110382,0.052324,-0.884765,0.463090,0.075011,-0.029419,-0.308214,8.844164,-31.271721,-9.479395,,,,,,,5
1508446973.494960,3.010085,1.054443,-1.215822,1.586500,-1.218713,-0.156828,0.064740,-0.869625,0.489449,0.056689,-0.109913,-0.324593,8.844164,-31.271721,-9.479395,,,,,,,5
1508446973.514976,2.986282,1.024267,-1.218555,1.416141,-1.278055,-0.140179,0.080395,-0.854333,0.513470,-0.042202,-0.305258,-0.181530,8.844164,-31.271721,-9.479395,,,,,,,5
1508446973.534985,2.967216,1.000693,-1.220557,1.012398,-0.859293,-0.143195,0.093638,-0.841845,0.531534,-0.108271,-0.348768,-0.208506,8.844164,-31.271721,-9.479395,,,,,,,5
1508446973.554976,2.955679,0.984517,-1.222046,0.706539,-0.578404,-0.065651,0.102268,-0.833005,0.543732,-0.201252,-0.383197,-0.400986,8.844164,-31.271721,-9.479395,,,,,,,5
1508446973.575001,2.944709,0.971753,-1.226607,0.644762,-0.882912,0.033694,0.110297,-0.825876,0.552959,-0.247504,-0.389670,-0.646236,8.844164,-31.271721,-9.479395,,,,,,,5
1508446973.595021,2.927815,0.959105,-1.232338,0.638531,-1.136866,0.016415,0.121830,-0.818678,0.561180,-0.265400,-0.476671,-0.625573,8.844164,-31.271721,-9.479395,,,,,,,5
1508446973.615023,2.910725,0.950973,-1.234750,0.194423,-0.739498,-0.034864,0.132921,-0.813981,0.565479,-0.328523,-0.796004,-0.589329,8.844164,-31.271721,-9.479395,,,,,,,5
1508446973.635041,2.905753,0.958289,-1.232131,-0.760235,0.220622,0.059133,0.134336,-0.818209,0.559006,-0.315534,-1.017743,-0.823822,8.844164,-31.271721,-9.479395,,,,,,,5
1508446973.655057,2.908494,0.991891,-1.222094,-2.378975,0.665738,0.117445,0.126378,-0.837062,0.532311,-0.167485,-0.981236,-1.240365,8.844164,-31.271721,-9.479395,,,,,,,5
1508446973.675068,2.896900,1.057704,-1.192973,-3.761857,0.597039,0.009087,0.118918,-0.871231,0.476252,-0.061835,-0.698517,-1.150110,8.844164,-31.271721,-9.479395,,,,,,,5
1508446973.695082,2.866661,1.128851,-1.157134,-3.422080,-0.397797,0.223023,0.116112,-0.903921,0.411636,0.268852,-0.307947,-0.393661,8.844164,-31.271721,-9.479395,,,,,,,5
1508446973.715074,2.820054,1.184574,-1.136918,-2.383652,-2.019502,0.515720,0.119045,-0.926339,0.357387,0.341450,-0.558326,0.105260,8.844164,-31.271721,-9.479395,,,,,,,5
1508446973.735104,2.755460,1.226082,-1.132775,-1.866873,-3.547696,0.737103,0.127266,-0.941172,0.313047,0.333396,-0.721288,0.375628,8.844164,-31.271721,-9.479395,,,,,,,5
1508446973.755117,2.690964,1.274206,-1.133628,-2.498419,-2.651343,1.175501,0.127289,-0.956339,0.263085,0.367798,-0.708746,0.901771,8.844164,-31.271721,-9.479395,,,,,,,5
1508446973.775102,2.648138,1.341805,-1.108743,-3.515578,-0.010768,1.215951,0.107521,-0.973896,0.199915,0.061089,-0.234356,0.224890,8.844164,-31.271721,-9.479395,,,,,,,5
1508446973.795139,2.529709,1.418223,-0.976653,-4.040060,0.721969,0.755400,0.087300,-0.988383,0.124408,-0.006124,-0.166310,0.000119,8.844164,-31.271721,-9.479395,,,,,,,5
1508446973.815153,2.131466,1.482233,-0.562803,-3.831908,0.499002,0.518447,0.074906,-0.996081,0.047032,0.012069,-0.105650,-0.032048,8.844164,-31.271721,-9.479395,,,,,,,5
1508446973.835165,1.199671,1.503536,0.375703,-3.444431,0.071288,0.692746,0.062634,-0.997739,-0.024375,0.098621,0.053647,0.306647,8.844164,-31.271721,-9.479395,,,,,,,5
1508446973.855175,0.481727,1.471277,1.093264,-3.042141,-0.244815,0.888546,0.046032,-0.995052,-0.088048,0.117740,0.096660,0.412221,8.844164,-31.271721,-9.479395,,,,,,,5
1508446973.875165,0.184708,1.422143,1.385951,-2.822783,-0.312891,0.896694,0.027201,-0.988971,-0.145587,0.151037,0.173923,0.553714,8.844164,-31.271721,-9.479395,,,,,,,5
1508446973.895200,0.054255,1.367882,1.516724,-2.838718,0.116859,0.753147,0.010928,-0.979483,-0.201228,0.180951,0.190452,0.603053,8.844164,-31.271721,-9.479395,,,,,,,5
1508446973.915205,0.005439,1.310794,1.578601,-2.883436,0.849155,0.542512,0.001398,-0.966389,-0.257079,0.128164,0.233815,0.634643,8.844164,-31.271721,-9.479395,,,,,,,5
1508446973.935200,0.005248,1.254038,1.603956,-2.777729,1.387632,0.219045,0.001635,-0.950250,-0.311484,-0.038149,0.321039,0.658011,8.844164,-31.271721,-9.479395,,,,,,,5
1508446973.955236,0.034998,1.202422,1.607322,-2.444106,1.798514,-0.102637,0.012600,-0.932914,-0.359879,-0.113308,0.348533,0.680603,8.844164,-31.271721,-9.479395,,,,,,,5
1508446973.975233,0.079321,1.158128,1.602252,-2.057427,2.053725,-0.276000,0.031779,-0.916054,-0.399794,-0.127604,0.359550,0.707412,8.844164,-31.271721,-9.479395,,,,,,,5
1508446973.995261,0.122931,1.122243,1.597122,-1.580305,1.786863,-0.265875,0.053176,-0.901075,-0.430390,0.014863,0.439833,0.719147,8.844164,-31.271721,-9.479395,,,,,,,5
1508446974.015272,0.147762,1.099309,1.596863,-0.831630,0.825702,-0.081545,0.066871,-0.890894,-0.449262,0.159218,0.455759,0.715406,8.844164,-31.271721,-9.479395,,,,,,,5
1508446974.035282,0.143933,1.094274,1.602864,0.062823,-0.378382,0.225186,0.065793,-0.888595,-0.453949,0.229464,0.454666,0.691284,8.844164,-31.271721,-9.479395,,,,,,,5
1508446974.055297,0.105282,1.106464,1.620408,0.829361,-1.618189,0.625596,0.047061,-0.894121,-0.445347,0.377789,0.479387,0.519809,8.844164,-31.271721,-9.479395,,,,,,,5
1508446974.075303,0.028593,1.131955,1.654260,1.439535,-2.693726,0.890681,0.012147,-0.905244,-0.424717,0.346389,0.550539,0.376484,8.844164,-31.271721,-9.479395,,,,,,,5
1508446974.095319,-0.074233,1.166568,1.696936,1.930976,-3.380750,0.748349,-0.029170,-0.919406,-0.392227,0.183009,0.434802,0.206314,8.844164,-31.271721,-9.479395,,,,,,,5
1508446974.115333,-0.183400,1.208609,1.741076,2.168983,-3.536958,0.468038,-0.064619,-0.935124,-0.348378,-0.064120,-0.044063,-0.451564,8.844164,-31.271721,-9.479395,,,,,,,5
1508446974.135332,-0.262050,1.233552,1.773407,0.799209,-1.029557,0.042312,-0.085720,-0.943670,-0.319591,-0.470112,-1.000559,-1.392231,8.844164,-31.271721,-9.479395,,,,,,,5
1508446974.155354,-0.232255,1.241195,1.760582,0.192907,1.608941,-0.448350,-0.074499,-0.946172,-0.314975,-0.797571,-0.734889,-0.927380,8.844164,-31.271721,-9.479395,,,,,,,5
1508446974.175368,-0.168688,1.245496,1.738502,0.086847,2.368042,-0.294264,-0.053656,-0.947555,-0.315057,-0.460473,-0.050141,-0.409278,8.844164,-31.271721,-9.479395,,,,,,,5
1508446974.195379,-0.113447,1.243562,1.735382,-0.189864,2.780784,0.126468,-0.036387,-0.946935,-0.319359,-0.104666,0.271169,-0.016380,8.844164,-31.271721,-9.479395,,,,,,,5
1508446974.215391,-0.064783,1.243649,1.745078,0.284065,2.764381,0.064353,-0.020803,-0.946963,-0.320669,-0.080195,0.378802,0.286504,8.844164,-31.271721,-9.479395,,,,,,,5
1508446974.235402,-0.020572,1.267782,1.728331,1.847158,0.428705,-0.510136,-0.006138,-0.954441,-0.298335,-0.003429,-0.118618,0.839931,8.844164,-31.271721,-9.479395,,,,,,,5
1508446974.255415,-0.006836,1.319403,1.693992,2.689049,-1.653310,-0.338661,-0.001700,-0.968567,-0.248748,-0.018166,-0.424591,0.730728,8.844164,-31.271721,-9.479395,,,,,,,5
1508446974.275421,-0.015668,1.340877,1.687123,-0.030936,1.445099,-0.260813,-0.003571,-0.973685,-0.227871,0.082260,-1.342935,-0.771336,8.844164,-31.271721,-9.479395,,,,,,,5
1508446974.295440,0.100978,1.324563,1.649446,-1.129612,3.624188,-0.356608,0.024572,-0.969837,-0.242511,0.565180,-0.152706,0.330371,8.844164,-31.271721,-9.479395,,,,,,,5
1508446974.315451,0.090684,1.303750,1.686814,-0.839240,0.020571,0.847289,0.023897,-0.964555,-0.262799,0.332243,0.303239,0.765103,8.844164,-31.271721,-9.479395,,,,,,,5
1508446974.335463,-0.024236,1.307217,1.775467,0.812811,-2.249492,1.137108,-0.006314,-0.965464,-0.260461,0.311779,0.742899,1.002405,8.844164,-31.271721,-9.479395,,,,,,,5
1508446974.355476,-0.138702,1.346215,1.832567,2.535585,-2.899935,0.098870,-0.030790,-0.974887,-0.220560,0.270582,1.138843,1.094034,8.844164,-31.271721,-9.479395,,,,,,,5
1508446974.375487,-0.135516,1.412772,1.808019,3.638248,0.139781,-1.141869,-0.021261,-0.987540,-0.155925,0.137334,0.997687,1.030162,8.844164,-31.271721,-9.479395,,,,,,,5
1508446974.395498,0.118636,1.497046,1.573094,3.901123,1.108830,-1.347652,0.008721,-0.997282,-0.073165,-0.027413,-0.023394,0.553588,8.844164,-31.271721,-9.479395,,,,,,,5
1508446974.415512,1.136773,1.550366,0.540723,2.664860,-2.097482,0.230446,0.018535,-0.999791,-0.008591,-0.510112,-0.910395,-0.720413,8.844164,-31.271721,-9.479395,,,,,,,5
1508446974.435502,3.130245,1.534006,-1.492961,2.318108,-1.089790,0.956631,0.000417,-0.999323,0.036780,-0.399831,-0.685049,-0.020835,8.844164,-31.271721,-9.479395,,,,,,,5
1508446974.455533,-3.068116,1.489632,-1.575792,1.986987,0.299548,-0.058688,-0.005952,-0.996708,0.080856,-0.256240,-0.365734,0.230423,8.844164,-31.271721,-9.479395,,,,,,,5
1508446974.475547,-3.121125,1.459736,-1.521970,1.257954,-0.009532,-0.152248,-0.002268,-0.993839,0.110809,0.046473,0.183140,0.266938,8.844164,-31.271721,-9.479395,,,,,,,5
1508446974.495538,-3.131025,1.436154,-1.505259,1.226710,0.520790,-0.094609,-0.001418,-0.990949,0.134228,0.174789,0.307691,0.048374,8.844164,-31.271721,-9.479395,,,,,,,5
1508446974.515570,3.116654,1.409250,-1.460273,1.414959,0.339630,-0.530802,0.004011,-0.986980,0.160795,0.170229,0.308757,-0.071363,8.844164,-31.271721,-9.479395,,,,,,,5
1508446974.535583,3.058671,1.375340,-1.399378,1.831551,-0.043198,-0.578761,0.016086,-0.980959,0.193547,0.010708,0.057299,-0.120869,8.844164,-31.271721,-9.479395,,,,,,,5
1508446974.555593,3.040101,1.335382,-1.386766,2.000337,-0.444490,-0.173068,0.023632,-0.972418,0.232046,-0.124904,-0.096888,0.000132,8.844164,-31.271721,-9.479395,,,,,,,5
1508446974.575606,3.043355,1.297111,-1.399580,1.849848,-0.429896,0.028002,0.026509,-0.962781,0.268978,-0.145039,-0.082537,0.015140,8.844164,-31.271721,-9.479395,,,,,,,5
1508446974.595601,3.049509,1.261732,-1.413586,1.768915,-0.338558,0.009303,0.027969,-0.952619,0.302878,-0.048096,-0.038928,-0.115806,8.844164,-31.271721,-9.479395,,,,,,,5
1508446974.615630,3.048285,1.225095,-1.421356,1.875605,-0.530074,-0.059170,0.031572,-0.940838,0.337383,-0.003618,-0.078159,-0.209834,8.844164,-31.271721,-9.479395,,,,,,,5
1508446974.635629,3.042760,1.188868,-1.432679,1.747757,-0.971337,0.111930,0.036776,-0.927948,0.370892,0.101576,-0.076538,-0.296444,8.844164,-31.271721,-9.479395,,,,,,,5
1508446974.655655,3.037926,1.156027,-1.451673,1.679553,-1.162209,0.200661,0.041700,-0.915209,0.400815,0.141283,0.125445,-0.310499,8.844164,-31.271721,-9.479395,,,,,,,5
1508446974.675666,3.023074,1.118898,-1.462301,1.996410,-1.315392,-0.114133,0.051633,-0.899620,0.433611,0.089221,0.094642,-0.422869,8.844164,-31.271721,-9.479395,,,,,,,5
1508446974.695677,2.993924,1.078910,-1.465782,1.879602,-1.748956,-0.169727,0.069489,-0.881444,0.467149,-0.082551,-0.310024,-0.754243,8.844164,-31.271721,-9.479395,,,,,,,5
1508446974.715691,2.966107,1.052785,-1.471172,0.887974,-1.501521,-0.041438,0.086447,-0.868806,0.487549,0.011941,-0.451110,-0.723419,8.844164,-31.271721,-9.479395,,,,,,,5
1508446974.735703,2.942034,1.046737,-1.471412,0.035996,-1.023137,-0.074728,0.099198,-0.865795,0.490468,0.000931,-0.469334,-0.595433,8.844164,-31.271721,-9.479395,,,,,,,5
1508446974.755713,2.919486,1.048792,-1.464552,-0.171575,-0.747206,-0.184836,0.109838,-0.866821,0.486371,-0.180471,-0.397232,-0.323498,8.844164,-31.271721,-9.479395,,,,,,,5
1508446974.775727,2.902990,1.049407,-1.456453,-0.019585,-0.274483,-0.166188,0.117720,-0.867128,0.483974,-0.521361,-0.463454,-0.189784,8.844164,-31.271721,-9.479395,,,,,,,5
1508446974.795732,2.898202,1.052407,-1.452378,-0.383089,-0.017675,0.003494,0.119408,-0.868618,0.480878,-0.647469,-0.809360,-0.735654,8.844164,-31.271721,-9.479395,,,,,,,5
1508446974.815749,2.885024,1.078137,-1.441914,-1.973866,-0.235365,0.091349,0.120023,-0.881078,0.457489,-0.779721,-1.084422,-1.255432,8.844164,-31.271721,-9.479395,,,,,,,5
1508446974.835762,2.866170,1.134689,-1.405700,-3.443600,1.378247,-0.150612,0.114877,-0.906403,0.406494,-0.315622,-0.794891,-0.975174,8.844164,-31.271721,-9.479395,,,,,,,5
1508446974.855760,2.835617,1.208467,-1.331937,-4.052501,1.803870,-0.349100,0.106770,-0.935074,0.337990,0.382336,-0.219894,-0.452934,8.844164,-31.271721,-9.479395,,,,,,,5
1508446974.875785,2.778055,1.272413,-1.254610,-2.884253,0.140863,0.000004,0.104533,-0.955813,0.274763,0.479955,-0.253660,0.282611,8.844164,-31.271721,-9.479395,,,,,,,5
1508446974.895798,2.705308,1.311783,-1.202754,-1.780286,-2.054081,0.119255,0.108233,-0.966643,0.232135,0.507780,-0.557679,0.466336,8.844164,-31.271721,-9.479395,,,,,,,5
1508446974.915809,2.593052,1.349009,-1.149030,-2.184012,-3.151908,0.539925,0.114703,-0.975506,0.187700,0.403226,-0.826252,0.451475,8.844164,-31.271721,-9.479395,,,,,,,5
1508446974.935821,2.474024,1.406038,-1.070990,-3.095430,-1.303754,1.225883,0.101537,-0.986458,0.128805,0.148539,-0.722557,0.365427,8.844164,-31.271721,-9.479395,,,,,,,5
1508446974.955830,2.216726,1.468961,-0.815658,-3.453278,0.180276,0.854586,0.081179,-0.994819,0.061193,-0.333148,-0.290642,0.100565,8.844164,-31.271721,-9.479395,,,,,,,5
1508446974.975845,1.512670,1.502294,-0.107884,-3.124787,-0.036433,0.602659,0.068333,-0.997655,-0.003976,-0.140904,-0.201640,0.281305,8.844164,-31.271721,-9.479395,,,,,,,5
1508446974.995833,0.702821,1.487614,0.702919,-2.942041,-0.026195,0.823513,0.053705,-0.996542,-0.063397,-0.038980,-0.131632,0.439954,8.844164,-31.271721,-9.479395,,,,,,,5
1508446975.015869,0.286353,1.443346,1.123372,-2.928456,0.146236,0.920647,0.035902,-0.991889,-0.121930,0.154101,0.113776,0.565839,8.844164,-31.271721,-9.479395,,,,,,,5
1508446975.035881,0.103030,1.391693,1.311271,-2.685655,0.129050,0.903473,0.018322,-0.984004,-0.177202,0.162251,0.244532,0.570864,8.844164,-31.271721,-9.479395,,,,,,,5
1508446975.055892,0.012526,1.342896,1.408507,-2.390610,0.320764,0.785737,0.002830,-0.974143,-0.225915,0.126763,0.302222,0.595361,8.844164,-31.271721,-9.479395,,,,,,,5
1508446975.075905,-0.028863,1.296627,1.463297,-2.275618,0.775990,0.656067,-0.007813,-0.962650,-0.270635,-0.000579,0.355015,0.662328,8.844164,-31.271721,-9.479395,,,,,,,5
1508446975.095917,-0.040287,1.251553,1.498815,-2.196948,1.326990,0.567695,-0.012641,-0.949473,-0.313594,-0.038507,0.373774,0.727336,8.844164,-31.271721,-9.479395,,,,,,,5
1508446975.115928,-0.032723,1.209593,1.524289,-1.993575,1.706805,0.455733,-0.011562,-0.935472,-0.353211,-0.068134,0.387606,0.762406,8.844164,-31.271721,-9.479395,,,,,,,5
1508446975.135942,-0.012599,1.173387,1.542554,-1.667668,1.920820,0.340399,-0.004876,-0.922067,-0.387000,-0.096778,0.486276,0.813422,8.844164,-31.271721,-9.479395,,,,,,,5
1508446975.155928,0.014164,1.145299,1.556624,-1.238452,1.999942,0.247110,0.005846,-0.910834,-0.412732,-0.047717,0.525854,0.895994,8.844164,-31.271721,-9.479395,,,,,,,5
1508446975.175964,0.041338,1.126962,1.568062,-0.712281,1.740343,0.215055,0.017746,-0.903112,-0.429038,0.042801,0.541250,0.940269,8.844164,-31.271721,-9.479395,,,,,,,5
1508446975.195977,0.057867,1.121265,1.580854,-0.047726,1.163416,0.292507,0.025132,-0.900651,-0.433817,0.162368,0.539368,0.894342,8.844164,-31.271721,-9.479395,,,,,,,5
1508446975.215990,0.054473,1.129763,1.595111,0.714043,-0.013823,0.357531,0.023241,-0.904311,-0.426241,0.427167,0.515044,0.438219,8.844164,-31.271721,-9.479395,,,,,,,5
1508446975.235999,0.022681,1.157504,1.613805,1.744004,-1.151688,0.482294,0.009108,-0.915803,-0.401523,0.499360,0.454271,0.210956,8.844164,-31.271721,-9.479395,,,,,,,5
1508446975.256013,-0.030642,1.200736,1.635678,2.279127,-2.027654,0.379558,-0.011081,-0.932306,-0.361502,0.229800,-0.442557,-1.215708,8.844164,-31.271721,-9.479395,,,,,,,5
1508446975.276025,-0.116358,1.226849,1.673604,0.846714,-2.220454,0.622062,-0.039148,-0.941431,-0.334925,-0.364600,-1.371572,-2.131505,8.844164,-31.271721,-9.479395,,,,,,,5
1508446975.296034,-0.164384,1.241576,1.699115,0.811828,-0.661931,0.033084,-0.052907,-0.946295,-0.318947,-0.500971,-0.991785,-1.336860,8.844164,-31.271721,-9.479395,,,,,,,5
1508446975.316029,-0.158409,1.256437,1.693805,0.647720,0.475050,-0.213366,-0.048777,-0.950995,-0.305336,-0.283453,0.155874,-0.305565,8.844164,-31.271721,-9.479395,,,,,,,5
1508446975.336061,-0.142516,1.264561,1.698465,0.204781,1.287172,0.165835,-0.042819,-0.953475,-0.298415,-0.215207,0.253799,-0.287828,8.844164,-31.271721,-9.479395,,,,,,,5
1508446975.356062,-0.125847,1.269728,1.724727,0.566875,2.520022,0.376316,-0.037220,-0.955020,-0.294196,-0.094158,0.066440,-0.069055,8.844164,-31.271721,-9.479395,,,,,,,5
1508446975.376085,-0.084272,1.295309,1.733165,1.784137,2.315095,-0.320781,-0.022896,-0.962293,-0.271050,0.000908,-0.361056,0.773965,8.844164,-31.271721,-9.479395,,,,,,,5
1508446975.396097,-0.004494,1.339348,1.685860,2.053857,1.123524,-0.782619,-0.001031,-0.973335,-0.229385,-0.079993,-0.522606,0.938538,8.844164,-31.271721,-9.479395,,,,,,,5
1508446975.416107,0.049045,1.348070,1.630718,-0.631341,0.059242,-0.531950,0.010829,-0.975299,-0.220624,-0.133174,-0.623883,0.455273,8.844164,-31.271721,-9.479395,,,,,,,5
1508446975.436120,0.114018,1.319794,1.607293,-1.484038,2.879168,-0.215303,0.028258,-0.968664,-0.246763,0.393907,0.206106,0.191556,8.844164,-31.271721,-9.479395,,,,,,,5
1508446975.456132,0.124305,1.307435,1.634953,0.068070,0.716067,0.571007,0.032277,-0.965520,-0.258319,0.425914,0.233694,0.377398,8.844164,-31.271721,-9.479395,,,,,,,5
1508446975.476143,0.046177,1.338691,1.682967,2.283221,-2.785072,0.689924,0.010618,-0.973184,-0.229782,0.386080,0.499994,0.775558,8.844164,-31.271721,-9.479395,,,,,,,5
1508446975.496156,-0.049660,1.399800,1.720230,3.357331,-2.428619,0.104933,-0.008447,-0.985416,-0.169955,0.290490,0.792194,0.953677,8.844164,-31.271721,-9.479395,,,,,,,5
1508446975.516142,-0.036329,1.470022,1.691075,3.482913,0.091947,-0.582079,-0.003654,-0.994927,-0.100537,0.080635,0.361534,0.737012,8.844164,-31.271721,-9.479395,,,,,,,5
1508446975.536157,0.240951,1.533758,1.422813,3.039690,0.341095,-0.488657,0.008836,-0.999314,-0.035960,-0.209108,-0.246017,0.164134,8.844164,-31.271721,-9.479395,,,,,,,5
1508446975.556193,2.630415,1.552617,-0.978525,2.389505,-0.943442,0.272685,0.008893,-0.999835,0.015854,-0.508588,-0.658841,-0.203476,8.844164,-31.271721,-9.479395,,,,,,,5
1508446975.576204,3.070426,1.509387,-1.430936,2.178684,-0.318239,0.094670,0.004364,-0.998115,0.061215,-0.455475,-0.334038,0.162647,8.844164,-31.271721,-9.479395,,,,,,,5
1508446975.596214,3.069650,1.472860,-1.428115,1.600726,0.321613,-0.202421,0.007029,-0.995208,0.097527,-0.288324,0.107497,0.183158,8.844164,-31.271721,-9.479395,,,,,,,5
1508446975.616229,3.086275,1.442953,-1.432674,1.529864,0.731415,0.016641,0.007049,-0.991839,0.127300,-0.062744,0.293139,0.104191,-8.388762,-32.732410,-12.475772,,,,,,,5
1508446975.636240,3.113210,1.406645,-1.446540,1.987883,0.528117,-0.026581,0.004637,-0.986557,0.163349,0.182405,0.265595,-0.105381,-8.150303,-33.305397,-11.034041,,,,,,,5
1508446975.656225,3.098499,1.365493,-1.428154,1.995177,-0.038294,-0.382574,0.008783,-0.978999,0.203675,0.255255,0.163508,-0.167481,-8.079628,-33.527435,-10.395074,,,,,,,5
1508446975.676259,3.064914,1.328786,-1.396782,1.708906,-0.185949,-0.423379,0.018358,-0.970858,0.238951,0.245069,-0.190015,-0.047621,-7.699758,-34.166489,-8.413776,,,,,,,5
1508446975.696276,3.054785,1.295754,-1.392941,1.627395,-0.452166,-0.010068,0.023546,-0.962414,0.270565,0.046659,-0.178730,-0.078457,-7.542552,-34.470398,-7.233841,,,,,,,5
1508446975.716261,3.064832,1.263910,-1.417489,1.598236,-0.758037,0.312078,0.023166,-0.953279,0.301203,-0.032977,-0.099563,-0.135080,-7.593712,-34.579742,-6.633533,,,,,,,5
1508446975.736300,3.073909,1.233191,-1.442269,1.552562,-0.656350,0.220210,0.022402,-0.943551,0.330470,-0.052980,0.176079,-0.208522,-8.010178,-34.786667,-4.811607,,,,,,,5
1508446975.756312,3.073610,1.200434,-1.453707,1.728534,-0.539220,0.021579,0.024588,-0.932196,0.361117,-0.017904,0.153098,-0.231997,-8.134615,-34.870407,-3.912765,,,,,,,5
1508446975.776321,3.065205,1.164594,-1.460200,1.788373,-0.847446,-0.012232,0.030153,-0.918628,0.393972,0.100996,0.002994,-0.250447,-8.404137,-33.795483,-3.186986,,,,,,,5
1508446975.796335,3.050590,1.132337,-1.465252,1.489314,-1.015238,-0.041446,0.038582,-0.905407,0.422788,0.011513,-0.096302,-0.435789,-8.438142,-33.901634,-1.548469,,,,,,,5
1508446975.816332,3.030302,1.104635,-1.470084,1.378756,-1.428363,-0.023506,0.049918,-0.893300,0.446680,-0.054480,-0.158137,-0.569605,-8.435133,-33.930851,-0.683366,,,,,,,5
1508446975.836358,2.999272,1.077673,-1.476078,1.277925,-1.990362,-0.046058,0.067144,-0.880859,0.468593,0.051950,-0.332734,-0.596340,-8.419741,-33.937687,0.512207,,,,,,,5
1508446975.856372,2.963553,1.057571,-1.479959,0.841361,-1.848946,-0.076173,0.086955,-0.871166,0.483228,-0.007212,-0.346089,-0.332532,-8.312041,-33.914196,1.912642,,,,,,,5
1508446975.876359,2.934884,1.044913,-1.479729,0.495104,-1.084220,-0.172150,0.103026,-0.864881,0.491291,-0.284651,-0.362002,-0.175434,-8.209257,-33.900635,2.505232,,,,,,,5
1508446975.896393,2.919349,1.039841,-1.472674,0.009225,-0.201340,-0.222342,0.111610,-0.862324,0.493904,-0.548790,-0.553158,-0.567054,-8.077600,-33.901955,2.886338,,,,,,,5
1508446975.916408,2.908248,1.047553,-1.467078,-0.704527,-0.478271,0.069685,0.115545,-0.866203,0.486150,-0.722326,-0.915154,-1.205174,-7.885585,-33.947819,2.878236,,,,,,,5
1508446975.936417,2.890824,1.078431,-1.453264,-2.210165,0.137172,-0.057270,0.117303,-0.881217,0.457926,-0.290536,-0.898141,-1.120341,-7.387947,-32.431255,2.090155,,,,,,,5
1508446975.956429,2.857896,1.139666,-1.398228,-3.799347,0.972262,-0.573381,0.116972,-0.908494,0.401194,0.057588,-0.677795,-0.996668,-7.387947,-32.431255,2.090155,,,,,,,5
1508446975.976444,2.771864,1.208872,-1.297303,-3.685672,-0.111917,-0.727650,0.127949,-0.935217,0.330148,0.424068,-0.304499,-0.482248,-7.030592,-32.555656,-1.198643,,,,,,,5
1508446975.996454,2.673256,1.257453,-1.211051,-2.210518,-1.360641,-0.036046,0.139141,-0.951308,0.275050,0.275257,-0.737107,0.293493,-6.490617,-32.378708,-4.497554,,,,,,,5
1508446976.016463,2.593350,1.288071,-1.179810,-1.376903,-3.126870,0.515713,0.145398,-0.960299,0.238088,0.227954,-0.896971,0.513224,-6.583982,-32.277901,-5.052227,,,,,,,5
1508446976.036458,2.503632,1.329060,-1.153454,-2.356597,-2.821508,1.109438,0.142570,-0.970924,0.192304,0.255577,-0.928200,0.773501,-7.660366,-31.886345,-5.942785,,,,,,,5
1508446976.056490,2.386944,1.394393,-1.056354,-3.534969,-0.131158,1.384968,0.120217,-0.984481,0.127847,0.132988,-0.709702,0.704856,-8.445392,-31.477385,-6.970399,,,,,,,5
1508446976.076491,2.083941,1.462026,-0.746492,-3.792430,0.138126,1.189263,0.094575,-0.994090,0.053292,-0.235719,-0.408604,0.141578,-9.345709,-30.524445,-7.992667,,,,,,,5
1508446976.096515,1.351384,1.495634,-0.010657,-3.321446,0.032078,1.009934,0.073291,-0.997177,-0.016344,-0.139957,-0.254380,0.332659,-10.181514,-29.387060,-10.756591,,,,,,,5
1508446976.116526,0.578704,1.472822,0.765666,-3.321478,0.063982,1.019541,0.053500,-0.995204,-0.081890,-0.009524,-0.215443,0.510113,-10.327614,-29.152489,-11.244534,,,,,,,5
1508446976.136531,0.206866,1.420495,1.142488,-3.253850,0.145637,1.291671,0.030755,-0.988726,-0.146544,0.222739,0.043566,0.621229,-11.179949,-27.562464,-14.081409,,,,,,,5
1508446976.156544,0.025477,1.366748,1.332575,-2.907138,0.357450,1.460794,0.005162,-0.979254,-0.202570,0.187450,0.228217,0.634164,-11.953173,-26.069056,-16.139786,,,,,,,5
1508446976.176561,-0.073889,1.310887,1.446672,-2.690913,0.764700,1.297852,-0.018972,-0.966413,-0.256291,0.140203,0.278547,0.689732,-12.396194,-25.094109,-17.308575,,,,,,,5
1508446976.196573,-0.106852,1.255943,1.505740,-2.640595,1.457135,0.943166,-0.033027,-0.950842,-0.307911,0.011924,0.329992,0.771488,-12.700768,-23.807508,-18.837719,,,,,,,5
1508446976.216586,-0.094441,1.203671,1.532337,-2.473099,2.091023,0.572368,-0.033848,-0.933363,-0.357334,-0.002651,0.392287,0.804325,-12.379521,-22.247240,-20.851246,,,,,,,5
1508446976.236586,-0.057599,1.157732,1.543007,-2.135240,2.451008,0.278365,-0.023108,-0.915895,-0.400752,-0.035699,0.474809,0.862987,-11.831918,-21.385897,-22.036694,,,,,,,5
1508446976.256608,-0.011103,1.119998,1.547938,-1.727223,2.569256,0.121030,-0.004837,-0.900100,-0.435657,-0.051422,0.531356,0.938785,-10.812837,-20.378937,-23.468025,,,,,,,5
1508446976.276622,0.034605,1.090885,1.552200,-1.273463,2.384000,0.072463,0.015974,-0.887036,-0.461424,-0.034910,0.551587,1.005995,-9.331748,-19.371798,-24.912220,,,,,,,5
1508446976.296634,0.069791,1.073059,1.559996,-0.649498,1.883765,0.201810,0.033294,-0.878665,-0.476276,0.054383,0.563113,1.053867,-8.491355,-18.931320,-25.543467,,,,,,,5
1508446976.316634,0.081083,1.071334,1.573963,0.258964,0.679338,0.412829,0.038793,-0.877840,-0.477380,0.137996,0.583834,1.010888,-7.828671,-18.657774,-25.953152,,,,,,,5
1508446976.336660,0.057558,1.093442,1.599392,1.532198,-0.444812,0.850516,0.026429,-0.888213,-0.458670,0.457534,0.577987,0.627127,-7.672400,-18.900106,-25.824154,,,,,,,5
1508446976.356669,0.000729,1.134507,1.638316,2.254590,-1.483040,0.865277,0.000308,-0.906326,-0.422579,0.483426,0.378341,0.150637,-8.449582,-19.690653,-24.976978,,,,,,,5
1508446976.376662,-0.067788,1.183738,1.673800,2.457719,-1.986782,0.536502,-0.025568,-0.926023,-0.376599,0.444498,0.167997,-0.194629,-8.997238,-20.193497,-24.377022,,,,,,,5
1508446976.396687,-0.131224,1.210818,1.710689,0.888883,-0.768811,0.453135,-0.046092,-0.935905,-0.349225,-0.253011,-1.382256,-1.923800,-10.598993,-21.471762,-22.574135,,,,,,,5
1508446976.416706,-0.136240,1.228056,1.715519,0.915436,0.228895,-0.403011,-0.045645,-0.941837,-0.332955,-0.370829,-1.020611,-1.140693,-10.830968,-21.709780,-22.233810,,,,,,,5
1508446976.436690,-0.100410,1.243087,1.685473,0.366040,0.463700,-0.477641,-0.032265,-0.946782,-0.320254,-0.315895,-0.125209,-0.588697,-10.635782,-22.069916,-21.971928,,,,,,,5
1508446976.456715,-0.071365,1.237240,1.681739,-0.399346,2.096016,0.177417,-0.023345,-0.944884,-0.326572,-0.225861,0.111342,-0.366009,-9.945223,-22.292889,-22.070034,,,,,,,5
1508446976.476741,-0.012776,1.249291,1.690331,1.288897,3.608327,0.000842,-0.004037,-0.948761,-0.315969,0.093682,0.014984,0.375188,-8.702932,-22.324249,-22.557781,,,,,,,5
1508446976.496752,0.066386,1.295244,1.650534,2.717432,0.686588,-0.787069,0.018049,-0.962275,-0.271479,0.315798,-0.452306,0.596293,-7.564530,-22.965118,-22.323708,,,,,,,5
1508446976.516766,0.108505,1.338329,1.584981,1.568789,-1.466559,-0.296684,0.024948,-0.973101,-0.229025,0.267334,-0.730268,0.783636,-7.167987,-24.455944,-20.820507,,,,,,,5
1508446976.536760,0.092541,1.339488,1.611504,-0.812911,1.846665,0.502820,0.021185,-0.973367,-0.228271,0.216135,-0.014273,0.353698,-7.360428,-24.697289,-20.465452,,,,,,,5
1508446976.556788,0.096342,1.318320,1.651242,-0.859312,1.769384,0.269200,0.024029,-0.968297,-0.248644,0.252735,0.247884,0.155336,-7.057750,-24.460373,-20.852940,,,,,,,5
1508446976.576802,0.089288,1.326939,1.666809,1.266056,-0.488272,0.229670,0.021530,-0.970414,-0.240486,0.150010,0.402573,0.635353,-6.381908,-24.099398,-21.481550,,,,,,,5
1508446976.596788,0.062944,1.375034,1.662505,2.921685,-1.827310,0.033634,0.012235,-0.980900,-0.194129,-0.020796,0.555301,0.950981,-6.776120,-24.639421,-20.735233,,,,,,,5
1508446976.616825,0.098683,1.438830,1.605376,3.244248,-0.289591,-0.374597,0.012964,-0.991305,-0.130944,-0.104547,0.562289,1.054573,-7.317349,-25.508133,-19.461712,,,,,,,5
1508446976.636837,0.321909,1.495622,1.391153,2.773343,0.472164,-0.427951,0.023761,-0.997176,-0.071246,-0.247623,-0.009737,0.632937,-8.261433,-29.633509,-14.883312,,,,,,,5
1508446976.656849,0.687839,1.537120,1.005561,2.076602,-1.566435,0.381415,0.021376,-0.999433,-0.026014,-0.421873,-0.589922,-0.348620,-8.309225,-30.349844,-13.332397,,,,,,,5
1508446976.676859,2.360870,1.549178,-0.680838,2.091198,0.084452,0.086785,0.015213,-0.999766,0.015356,-0.252838,-0.466298,-0.158560,-8.627692,-30.582045,-12.578178,,,,,,,5
1508446976.696875,2.787163,1.517047,-1.101457,1.480533,0.209006,-0.234390,0.018645,-0.998556,0.050384,0.019594,-0.143397,0.142746,-8.788002,-31.045109,-11.264162,,,,,,,5
1508446976.716885,2.901278,1.491749,-1.212305,1.356359,0.230561,0.138326,0.018794,-0.996877,0.076696,0.149220,0.280935,0.178782,-8.580765,-31.554281,-9.930094,,,,,,,5
1508446976.736891,3.034651,1.458367,-1.341392,2.002284,0.151380,0.376777,0.011975,-0.993686,0.111552,0.153552,0.342319,0.081914,-8.614219,-31.676685,-9.502203,,,,,,,5
1508446976.756886,3.078751,1.413501,-1.390031,2.365375,-0.411317,-0.078491,0.009837,-0.987655,0.156339,0.089543,0.321547,-0.057248,-8.866519,-32.124413,-7.570740,,,,,,,5
1508446976.776920,3.047366,1.365832,-1.369285,2.293750,-0.557168,-0.481666,0.019150,-0.979068,0.202629,0.037735,0.019245,-0.035469,-8.759291,-32.494106,-5.942800,,,,,,,5
1508446976.796931,3.018446,1.324644,-1.347494,1.846277,-0.257093,-0.407406,0.029932,-0.969857,0.241829,0.007284,-0.118003,-0.052116,-9.024913,-32.469711,-6.379533,,,,,,,5
1508446976.816945,3.012095,1.291459,-1.344301,1.560428,-0.164679,-0.149898,0.035605,-0.961238,0.273410,-0.107947,-0.163960,-0.107257,-8.705892,-32.864750,-4.532688,,,,,,,5
1508446976.836956,3.019249,1.260269,-1.359620,1.620818,-0.539799,0.129279,0.037290,-0.952173,0.303277,-0.118192,-0.032660,-0.166558,-8.698985,-32.997154,-3.456182,,,,,,,5
1508446976.856967,3.029610,1.225417,-1.388233,1.892254,-0.989772,0.300474,0.037833,-0.940947,0.336433,-0.025519,0.024336,-0.217323,-8.822081,-33.048008,-2.535641,,,,,,,5
1508446976.876982,3.032156,1.186545,-1.414663,1.983010,-1.129352,0.195708,0.040942,-0.927079,0.372623,0.130490,0.051942,-0.209659,-9.095582,-33.063614,-0.705354,,,,,,,5
1508446976.896967,3.024653,1.150063,-1.427961,1.741575,-0.854880,-0.032868,0.047653,-0.912790,0.405641,0.227524,0.069635,-0.213228,-9.166652,-33.049053,0.402734,,,,,,,5
1508446976.917003,3.013501,1.116358,-1.431313,1.693844,-0.731051,-0.172650,0.056073,-0.898508,0.435361,0.220019,0.039133,-0.265485,-9.140008,-33.029816,1.386082,,,,,,,5
1508446976.937016,2.994862,1.080613,-1.433872,1.814448,-1.248528,-0.189081,0.068831,-0.882246,0.465729,-0.116439,-0.197832,-0.490631,-8.911885,-32.954567,3.317319,,,,,,,5
1508446976.957014,2.969798,1.047139,-1.439030,1.499267,-1.564588,-0.089707,0.085484,-0.865996,0.492689,-0.154713,-0.401490,-0.609938,-8.745911,-32.874924,4.379262,,,,,,,5
1508446976.977039,2.946413,1.027598,-1.446361,0.686526,-1.373513,0.049599,0.100244,-0.856060,0.507063,-0.126322,-0.449360,-0.649473,-8.588615,-32.778625,5.312894,,,,,,,5
1508446976.997053,2.925588,1.020121,-1.449647,0.258526,-1.091045,-0.047418,0.112151,-0.852171,0.511103,-0.195006,-0.370836,-0.446711,-8.378946,-32.658298,6.297495,,,,,,,5
1508446977.017045,2.904234,1.016822,-1.444514,0.069090,-0.645388,-0.225392,0.123698,-0.850440,0.511322,-0.389079,-0.371834,-0.273056,-8.232691,-32.651226,6.523030,,,,,,,5
1508446977.037075,2.892412,1.016106,-1.437810,-0.076150,-0.176423,-0.111244,0.129885,-0.850064,0.510413,-0.523424,-0.637821,-0.530616,-8.062606,-32.670784,6.636559,,,,,,,5
1508446977.057090,2.883843,1.026863,-1.432569,-0.994225,-0.223168,0.052566,0.131915,-0.855680,0.500411,-0.713168,-0.952914,-0.918761,-7.784261,-31.613548,5.344310,,,,,,,5
1508446977.077100,2.870157,1.065022,-1.415791,-2.512887,0.296201,0.094725,0.129897,-0.874800,0.466747,-0.718170,-0.894320,-0.962764,-7.819866,-31.775167,4.214413,,,,,,,5
1508446977.097090,2.857395,1.126992,-1.375415,-3.579021,1.651588,-0.108963,0.120392,-0.903125,0.412155,-0.308030,-0.536176,-0.774475,-7.819866,-31.775167,4.214413,,,,,,,5
1508446977.117108,2.833724,1.197023,-1.317702,-3.537367,1.063366,-0.014302,0.110645,-0.930956,0.347963,0.436398,-0.238065,0.055693,-7.843786,-32.044781,-0.423984,,,,,,,5
1508446977.137136,2.795020,1.251134,-1.271201,-2.351939,-0.292170,0.164817,0.106742,-0.949342,0.295562,0.452737,-0.399184,0.342042,-7.853413,-31.977612,-2.080655,,,,,,,5
1508446977.157149,2.726819,1.290520,-1.232767,-2.071079,-2.282801,0.258263,0.111474,-0.960979,0.253165,0.424949,-0.937565,0.596932,-7.994096,-31.824722,-3.443018,,,,,,,5
1508446977.177144,2.632653,1.344609,-1.182836,-3.146795,-1.889974,0.938570,0.109273,-0.974528,0.195841,0.241145,-0.888203,0.480078,-8.563926,-31.495697,-4.822142,,,,,,,5
1508446977.197171,2.506015,1.419496,-1.067512,-3.920009,0.086941,1.100848,0.089476,-0.988576,0.121292,-0.206801,-0.427959,0.205276,-9.369217,-30.891119,-6.821238,,,,,,,5
1508446977.217183,2.142791,1.485698,-0.690552,-3.710913,0.572081,0.730280,0.071466,-0.996381,0.046009,-0.291040,-0.304934,0.146679,-9.672674,-30.498997,-8.051299,,,,,,,5
1508446977.237198,1.210218,1.509069,0.253206,-3.281703,0.462347,0.697522,0.057721,-0.998096,-0.021764,-0.055462,-0.119885,0.376577,-10.186954,-29.209320,-11.472337,,,,,,,5
1508446977.257184,0.468275,1.476720,1.007227,-3.141510,0.511800,0.886112,0.042399,-0.995578,-0.083825,0.117483,0.028354,0.536965,-10.417394,-28.501442,-12.950620,,,,,,,5
1508446977.277218,0.164540,1.425854,1.322786,-2.840433,0.448458,1.045067,0.023658,-0.989514,-0.142484,0.154213,0.075482,0.591764,-10.679235,-27.736774,-14.324737,,,,,,,5
1508446977.297232,0.023668,1.375167,1.474394,-2.535862,0.455619,1.012450,0.004600,-0.980925,-0.194330,0.062294,0.172210,0.649408,-11.305233,-26.090050,-16.735407,,,,,,,5
1508446977.317216,-0.042812,1.325103,1.555630,-2.493151,0.796022,0.845895,-0.010410,-0.969969,-0.243006,0.001835,0.235289,0.696024,-11.548131,-25.273073,-17.790033,,,,,,,5
1508446977.337254,-0.063652,1.274435,1.600681,-2.479285,1.329784,0.679248,-0.018577,-0.956406,-0.291451,-0.005593,0.250122,0.734840,-11.534422,-25.310335,-16.991554,,,,,,,5
1508446977.357269,-0.056252,1.225778,1.627414,-2.339719,1.812421,0.493370,-0.019015,-0.941069,-0.337679,-0.011594,0.338866,0.718218,-11.258471,-23.747976,-19.278210,,,,,,,5
1508446977.377156,-0.028831,1.181828,1.642282,-2.071244,2.197203,0.292511,-0.010932,-0.925301,-0.379076,-0.015740,0.479897,0.774950,-10.660976,-22.756363,-20.757179,,,,,,,5
1508446977.397191,0.007597,1.144925,1.652402,-1.689931,2.283759,0.191379,0.003138,-0.910679,-0.413102,-0.014232,0.510426,0.829774,-10.660976,-22.756363,-20.757179,,,,,,,5
1508446977.417198,0.041102,1.117563,1.661924,-1.157345,1.942386,0.167834,0.017992,-0.899036,-0.437505,0.091505,0.608966,0.839605,-8.884142,-21.161345,-23.143866,,,,,,,5
1508446977.437216,0.060759,1.104201,1.673630,-0.359696,1.229545,0.283548,0.027315,-0.893105,-0.449018,0.165312,0.607049,0.796567,-8.175166,-20.714611,-23.800011,,,,,,,5
1508446977.457221,0.059814,1.108590,1.691352,0.511334,0.421325,0.476457,0.026656,-0.895071,-0.445127,0.194581,0.587240,0.729658,-8.175166,-20.714611,-23.800011,,,,,,,5
1508446977.477237,0.033560,1.128928,1.712272,1.266855,-0.898402,0.501925,0.014348,-0.903954,-0.427388,0.315547,0.524987,0.415990,-8.098951,-20.949539,-23.619751,,,,,,,5
1508446977.497252,-0.018710,1.163434,1.734508,2.012790,-1.936881,0.448736,-0.007412,-0.918169,-0.396119,0.346157,0.461168,0.290574,-8.676679,-21.392830,-23.009365,,,,,,,5
1508446977.517248,-0.095966,1.209578,1.764405,2.322071,-2.914420,0.439903,-0.033864,-0.935467,-0.351789,0.330968,0.129299,-0.157519,-9.473723,-22.013268,-22.091480,,,,,,,5
1508446977.537271,-0.178095,1.227074,1.797514,0.037536,-1.664914,0.456062,-0.059700,-0.941507,-0.331664,-0.169334,-1.431906,-2.170640,-11.485057,-23.023998,-20.008945,,,,,,,5
1508446977.557287,-0.194469,1.225682,1.811579,0.203429,0.381540,-0.010574,-0.065376,-0.941037,-0.331927,-0.628029,-0.597263,-0.920758,-11.918394,-22.912657,-19.882931,,,,,,,5
1508446977.577297,-0.173395,1.236996,1.801461,0.642403,0.706522,-0.273955,-0.056526,-0.944804,-0.322723,-0.562340,-0.187215,-0.631607,-11.810125,-22.981504,-19.868073,,,,,,,5
1508446977.597312,-0.156608,1.245031,1.804527,0.132465,1.161930,0.160855,-0.049915,-0.947406,-0.316117,-0.170605,0.234027,-0.384643,-11.224991,-23.364691,-19.760056,,,,,,,5
1508446977.617318,-0.135037,1.246145,1.823924,0.284897,2.501894,0.287701,-0.042943,-0.947762,-0.316074,-0.015300,0.314049,0.119968,-10.871110,-23.338326,-19.987759,,,,,,,5
1508446977.637334,-0.088380,1.266465,1.822547,1.535515,1.786843,-0.462744,-0.026449,-0.954048,-0.298485,0.035803,0.302864,0.391152,-10.227378,-23.388426,-20.266996,,,,,,,5
1508446977.657348,-0.023807,1.313006,1.771424,2.538941,0.317703,-0.899570,-0.006069,-0.966956,-0.254873,-0.003849,-0.318216,1.048040,-8.920512,-24.544628,-19.502682,,,,,,,5
1508446977.677346,0.012788,1.346501,1.733317,0.677799,-0.186541,-0.166799,0.002844,-0.974951,-0.222402,-0.227301,-0.988565,0.233525,-8.588660,-25.316338,-18.646366,,,,,,,5
1508446977.697371,0.093119,1.330252,1.696729,-1.134427,3.865342,-0.701483,0.022152,-0.971208,-0.237199,-0.037945,-1.010084,-0.311781,-8.495748,-25.532246,-18.392815,,,,,,,5
1508446977.717357,0.171852,1.310547,1.682398,-0.769885,2.272456,0.135081,0.044004,-0.966326,-0.253531,0.322467,-0.062910,0.531103,-6.264494,-25.066444,-19.869534,,,,,,,5
1508446977.737396,0.114694,1.311966,1.754037,0.441086,-0.285484,1.272836,0.029292,-0.966690,-0.254268,0.120443,0.329346,0.858257,-6.083236,-24.842363,-20.204456,,,,,,,5
1508446977.757406,-0.006439,1.340116,1.849439,1.857396,-1.898701,1.012862,-0.001472,-0.973511,-0.228636,0.084205,0.566056,0.928648,-6.520060,-24.885180,-20.014633,,,,,,,5
1508446977.777416,-0.059470,1.393518,1.882406,3.130104,-0.241286,-0.261590,-0.010481,-0.984327,-0.176040,-0.036119,0.653913,0.916244,-8.618700,-26.662624,-19.743179,,,,,,,5
1508446977.797431,0.040508,1.466851,1.788273,3.857983,0.199566,-0.763131,0.004202,-0.994603,-0.103673,-0.032186,-0.080425,0.024495,-8.492739,-28.508747,-17.032188,,,,,,,5
1508446977.817420,0.180218,1.539130,1.616351,3.419861,-2.538317,0.311897,0.005675,-0.999499,-0.031149,-0.055999,-0.526258,-0.559443,-8.492739,-28.508747,-17.032188,,,,,,,5
1508446977.837441,-2.849245,1.537785,-1.680783,2.991514,-1.608835,0.837178,-0.009512,-0.999455,0.031605,0.090430,-0.556453,0.066082,-9.547374,-30.539713,-12.294075,,,,,,,5
1508446977.857466,-2.889170,1.487039,-1.659864,2.030251,-0.683307,0.456217,-0.020894,-0.996494,0.081008,0.110600,0.094822,0.302644,-10.259472,-31.009846,-10.397279,,,,,,,5
1508446977.877477,-2.917012,1.460325,-1.635502,1.011538,0.131786,0.080023,-0.024552,-0.993904,0.107478,0.114258,0.092232,0.276174,-10.259472,-31.009846,-10.397279,,,,,,,5
1508446977.897492,-2.941064,1.441010,-1.601157,1.086025,0.618962,-0.032921,-0.025779,-0.991590,0.126829,0.073799,0.368344,0.129946,-10.469245,-31.429626,-8.805911,,,,,,,5
1508446977.917503,-2.993989,1.414980,-1.539876,1.530792,0.154478,-0.339442,-0.022823,-0.987885,0.153500,-0.034321,0.405381,-0.106960,-10.765854,-31.286194,-9.395243,,,,,,,5
1508446977.937505,-3.084097,1.378500,-1.453186,2.111907,-0.403591,-0.653425,-0.010982,-0.981568,0.190798,-0.104435,0.030259,-0.062182,-10.562366,-31.581644,-8.604426,,,,,,,5
1508446977.957531,3.130918,1.333464,-1.394432,2.266018,-0.575043,-0.445722,0.002510,-0.971969,0.235098,-0.169471,-0.191743,-0.043615,-10.304616,-31.936489,-7.541588,,,,,,,5
1508446977.977538,3.116412,1.292001,-1.388976,1.927462,-0.353117,0.080829,0.006929,-0.961388,0.275110,-0.202913,-0.221672,-0.107111,-10.061933,-32.467720,-5.254019,,,,,,,5
1508446977.997546,3.127329,1.257935,-1.404595,1.593886,-0.144311,0.198549,0.004390,-0.951457,0.307751,-0.171016,-0.201863,-0.197018,-10.116694,-32.548271,-4.611130,,,,,,,5
1508446978.017563,3.132042,1.228519,-1.414154,1.415233,-0.317654,0.119217,0.003206,-0.941993,0.335618,0.075286,-0.002007,-0.320939,-10.307049,-32.675636,-3.011246,,,,,,,5
1508446978.037575,3.130504,1.200871,-1.424550,1.386546,-0.713615,0.197472,0.004009,-0.932355,0.361523,0.210652,0.144574,-0.323422,-10.426739,-32.714878,-2.004936,,,,,,,5
1508446978.057561,3.119785,1.171773,-1.434067,1.512573,-1.146391,0.100229,0.008472,-0.921441,0.388426,0.230114,0.198953,-0.360609,-10.504599,-32.718475,-1.468016,,,,,,,5
1508446978.077600,3.093359,1.138255,-1.437030,1.800555,-1.658013,-0.039392,0.020211,-0.907904,0.418692,0.130378,0.084341,-0.414968,-10.598451,-32.718147,0.442474,,,,,,,5
1508446978.097589,3.056382,1.098783,-1.441100,2.021235,-2.226465,-0.035871,0.038697,-0.890655,0.453030,0.091644,-0.226212,-0.414151,-10.521951,-32.678566,2.097614,,,,,,,5
1508446978.117621,3.016744,1.063515,-1.445919,1.499514,-2.004392,-0.101765,0.060494,-0.874069,0.482021,0.068824,-0.374192,-0.362331,-10.451549,-32.631851,2.987898,,,,,,,5
1508446978.137635,2.992298,1.044758,-1.446239,0.609852,-0.738754,-0.121993,0.074684,-0.864803,0.496526,-0.278267,-0.517796,-0.073064,-10.142691,-32.501900,4.873634,,,,,,,5
1508446978.157631,2.985025,1.039714,-1.441647,0.053776,0.060173,-0.190928,0.078973,-0.862259,0.500272,-0.541009,-0.479156,-0.294400,-10.017854,-32.491920,5.188244,,,,,,,5
1508446978.177657,2.975735,1.040693,-1.430992,-0.140843,-0.155622,-0.260842,0.083478,-0.862755,0.498684,-0.635007,-0.512672,-0.572216,-9.953298,-32.512299,5.184824,,,,,,,5
1508446978.197671,2.962573,1.046703,-1.425377,-0.522377,-0.498561,0.040267,0.089108,-0.865778,0.492431,-0.610745,-0.813223,-1.157683,-9.726641,-32.599083,5.068758,,,,,,,5
1508446978.217682,2.953940,1.070551,-1.421963,-1.647129,-0.051475,0.129277,0.089478,-0.877465,0.471221,-0.527268,-0.924842,-1.057921,-9.762601,-32.664234,4.554060,,,,,,,5
1508446978.237694,2.943117,1.119349,-1.396586,-3.006655,1.035672,-0.270820,0.086021,-0.899817,0.427704,-0.285499,-0.833948,-1.001541,-9.796221,-32.732330,3.953305,,,,,,,5
1508446978.257709,2.919999,1.186552,-1.337778,-3.688996,1.567437,-0.512440,0.082388,-0.927082,0.365693,0.450800,-0.294918,-0.360078,-9.567541,-33.032074,0.586750,,,,,,,5
1508446978.277719,2.877615,1.249795,-1.273127,-2.969296,0.517599,-0.172963,0.082326,-0.948920,0.304588,0.369212,-0.427667,0.432335,-9.281368,-33.060738,-1.960585,,,,,,,5
1508446978.297704,2.827346,1.294924,-1.229391,-2.084059,-1.231644,0.080042,0.084195,-0.962188,0.259047,0.336826,-0.623734,0.515077,-9.281368,-33.060738,-1.960585,,,,,,,5
1508446978.317730,2.732827,1.336760,-1.183314,-2.356246,-2.945165,0.348009,0.092177,-0.972738,0.212799,0.209031,-1.129679,0.507766,-9.344812,-32.834511,-4.191567,,,,,,,5
1508446978.337754,2.626212,1.399130,-1.121920,-3.561408,-1.675501,1.126932,0.084194,-0.985302,0.148635,-0.175350,-0.777455,0.125688,-10.528715,-31.115429,-6.087650,,,,,,,5
1508446978.357764,2.367941,1.478301,-0.869120,-4.241233,0.363531,0.839641,0.064540,-0.995725,0.066074,-0.287593,-0.438601,0.133801,-10.528715,-31.115429,-6.087650,,,,,,,5
1508446978.377765,1.376692,1.516723,0.134402,-3.576204,0.282331,0.504350,0.053033,-0.998538,-0.010425,-0.036461,-0.140164,0.251499,-11.616065,-29.380028,-10.861135,,,,,,,5
1508446978.397790,0.491555,1.487467,1.018693,-2.975956,-0.256573,0.812350,0.039286,-0.996530,-0.073378,0.088278,0.000024,0.567626,-11.966354,-28.456964,-12.770699,,,,,,,5
1508446978.417791,0.151330,1.436672,1.358455,-2.954026,-0.001020,0.985213,0.020159,-0.991019,-0.132194,0.094572,0.075965,0.629600,-12.238685,-27.963461,-13.577284,,,,,,,5
1508446978.437815,0.011843,1.382049,1.501483,-2.680230,0.113140,0.862984,0.002222,-0.982240,-0.187616,0.029562,0.206819,0.592126,-13.016922,-26.314404,-15.943495,,,,,,,5
1508446978.457803,-0.047160,1.331769,1.566239,-2.436148,0.329000,0.655407,-0.011161,-0.971569,-0.236494,0.047859,0.280590,0.637129,-13.367676,-25.255785,-17.307041,,,,,,,5
1508446978.477838,-0.063984,1.282475,1.598379,-2.436208,0.973312,0.505765,-0.018181,-0.958722,-0.283762,0.069817,0.290204,0.702142,-13.456638,-24.741314,-17.968571,,,,,,,5
1508446978.497851,-0.054000,1.234491,1.616847,-2.321300,1.584712,0.379407,-0.017811,-0.943980,-0.329520,0.051457,0.405009,0.763129,-13.461736,-24.059248,-19.147562,,,,,,,5
1508446978.517861,-0.028516,1.190825,1.627846,-2.063501,1.869796,0.223103,-0.010575,-0.928675,-0.370743,0.004212,0.542414,0.790742,-12.929452,-23.083265,-20.656406,,,,,,,5
1508446978.537874,0.003224,1.154148,1.635587,-1.679092,1.982017,0.170995,0.001305,-0.914450,-0.404696,-0.024086,0.587760,0.834979,-12.580299,-22.632130,-21.359255,,,,,,,5
1508446978.557888,0.032307,1.126905,1.646814,-1.149999,1.923541,0.237073,0.013872,-0.903087,-0.429233,-0.038912,0.693599,0.884815,-11.387486,-21.491219,-23.133263,,,,,,,5
1508446978.577889,0.056643,1.113196,1.659549,-0.405632,1.688389,0.241975,0.025012,-0.897115,-0.441088,-0.015765,0.691183,0.894884,-10.621907,-21.021572,-23.915760,,,,,,,5
1508446978.597908,0.076336,1.114323,1.669545,0.281415,1.221558,0.212157,0.033615,-0.897613,-0.439502,0.002136,0.663314,0.861850,-10.276090,-20.922344,-24.152691,,,,,,,5
1508446978.617908,0.079965,1.129378,1.677848,1.044207,0.076241,0.292119,0.034127,-0.904147,-0.425857,0.198295,0.514651,0.510925,-9.655075,-21.132898,-24.225506,,,,,,,5
1508446978.637933,0.050990,1.162675,1.692087,2.027387,-1.324930,0.453563,0.020229,-0.917868,-0.396369,0.339726,0.040930,-0.206948,-10.024697,-21.728703,-23.538563,,,,,,,5
1508446978.657934,-0.022549,1.211734,1.718403,2.416675,-3.290857,0.640555,-0.007923,-0.936227,-0.351307,0.336551,-0.421836,-0.907436,-10.024697,-21.728703,-23.538563,,,,,,,5
1508446978.677959,-0.133389,1.229669,1.769169,0.145801,-2.140756,0.788780,-0.044493,-0.942378,-0.331578,0.030363,-1.651998,-2.102062,-12.952355,-23.168367,-20.546486,,,,,,,5
1508446978.697969,-0.155416,1.230141,1.786005,0.175987,0.392794,-0.149224,-0.051717,-0.942536,-0.330078,-0.474773,-0.175933,-0.627091,-13.572330,-23.055933,-20.270935,,,,,,,5
1508446978.717963,-0.112349,1.236006,1.760561,0.201631,1.283006,-0.454985,-0.036837,-0.944479,-0.326500,-0.400602,0.098669,-0.369133,-13.408329,-23.132954,-20.292316,,,,,,,5
1508446978.737988,-0.073899,1.232328,1.752785,-0.597016,1.565905,0.122116,-0.024515,-0.943264,-0.331137,-0.016699,0.123486,-0.493769,-12.369927,-23.316944,-20.736441,,,,,,,5
1508446978.758005,-0.046736,1.218129,1.774095,-0.382261,2.986427,0.510400,-0.016137,-0.938455,-0.345026,0.064721,0.260140,0.337823,-11.664508,-22.929659,-21.560726,,,,,,,5
1508446978.777991,-0.008495,1.232331,1.789153,1.470833,1.858564,-0.024564,-0.002821,-0.943265,-0.332028,0.174467,-0.037417,0.765606,-10.567479,-22.958096,-22.089573,,,,,,,5
1508446978.798029,0.013621,1.282706,1.763048,2.918003,-1.238295,-0.458959,0.003870,-0.958788,-0.284095,0.150931,-0.320982,1.077873,-10.155593,-23.952103,-21.209801,,,,,,,5
1508446978.818022,-0.005715,1.330712,1.754195,1.757265,-0.733243,0.099351,-0.001359,-0.971318,-0.237780,0.336305,-0.354533,0.503451,-10.510820,-24.875706,-19.935320,,,,,,,5
1508446978.838053,0.046691,1.325010,1.736054,-1.416281,2.700718,-0.539671,0.011357,-0.969946,-0.243054,0.599773,-0.283807,-0.358219,-10.710540,-25.364273,-19.199816,,,,,,,5
1508446978.858067,0.110311,1.300082,1.711192,-0.670806,1.116606,-0.173767,0.029440,-0.963580,-0.265795,0.320887,-0.021985,0.419542,-9.069497,-24.849329,-20.662769,,,,,,,5
1508446978.878073,0.084251,1.317421,1.730378,1.736334,-1.028986,0.584478,0.021094,-0.968072,-0.249784,0.040490,0.308282,0.871244,-8.948412,-24.820230,-20.750351,,,,,,,5
1508446978.898089,0.019320,1.368922,1.769267,2.782307,-1.288211,0.434269,0.003874,-0.979692,-0.200469,-0.063123,0.465914,0.932021,-9.463184,-25.262087,-19.974236,,,,,,,5
1508446978.918103,0.008754,1.420094,1.770483,2.279143,-0.022771,-0.190738,0.001314,-0.988666,-0.150126,-0.402361,0.301731,0.638392,-10.288867,-26.661400,-17.606930,,,,,,,5
1508446978.938113,0.032859,1.456419,1.739734,1.655197,-0.658134,-0.006845,0.003749,-0.993466,-0.114066,-0.516048,-0.252704,-0.115639,-11.556819,-27.728275,-18.124153,,,,,,,5
1508446978.958127,0.005808,1.491719,1.755880,1.898744,-0.270339,0.042308,0.000459,-0.996875,-0.078993,-0.405229,-0.298718,-0.126680,-11.714354,-28.176466,-17.313665,,,,,,,5
1508446978.978131,0.122325,1.533234,1.636318,2.151703,-0.205901,-0.327151,0.004582,-0.999295,-0.037273,-0.040379,-0.199115,0.181194,-11.836093,-29.140812,-15.544205,,,,,,,5
1508446978.998149,2.009933,1.559973,-0.253668,2.029892,0.063523,-0.158659,0.009796,-0.999941,0.004601,0.099793,0.106951,0.043204,-11.708414,-29.846046,-14.248818,,,,,,,5
1508446979.018163,2.967463,1.525844,-1.206820,1.987620,0.181781,0.235037,0.007785,-0.998990,0.044258,0.117367,0.148434,-0.046608,-11.708414,-29.846046,-14.248818,,,,,,,5
1508446979.038157,3.127439,1.484910,-1.370677,2.119713,-0.370278,0.356026,0.001214,-0.996314,0.085772,0.200095,0.192817,-0.105028,-11.852645,-30.829042,-11.831622,,,,,,,5
1508446979.058186,3.137582,1.446900,-1.389354,1.682976,-0.366488,-0.144811,0.000496,-0.992335,0.123578,0.141335,0.089930,-0.078183,-12.074490,-31.228575,-10.482615,,,,,,,5
1508446979.078193,3.087311,1.420468,-1.343430,1.140303,-0.180114,-0.397235,0.008125,-0.988722,0.149542,0.036995,0.039976,-0.032690,-12.043730,-31.416887,-9.941333,,,,,,,5
1508446979.098187,3.053176,1.398227,-1.311520,1.113444,-0.112759,-0.279220,0.015163,-0.985147,0.171044,-0.175914,0.063363,0.072181,-11.745644,-31.874352,-8.773135,,,,,,,5
1508446979.118222,3.046907,1.373126,-1.307029,1.342003,-0.080318,-0.081395,0.018567,-0.980527,0.195506,-0.211453,0.011578,-0.003947,-11.631100,-32.121647,-7.988730,,,,,,,5
1508446979.138217,3.058771,1.343892,-1.319438,1.508912,0.040031,0.030807,0.018610,-0.974367,0.224191,-0.196452,-0.026197,-0.058466,-11.617046,-32.235470,-7.537981,,,,,,,5
,,,,,,,,,,,,,,,,42.293318,-71.264164,60.142918,-1.000000,-1.000000,1508446979.137848,5
1508446979.158246,3.073131,1.316158,-1.333413,1.184060,-0.134700,0.139791,0.017232,-0.967755,0.251305,0.020122,0.002117,-0.056038,-11.631591,-32.529106,-6.120910,,,,,,,5
1508446979.178231,3.094789,1.292968,-1.352791,1.239143,0.201201,0.206514,0.012832,-0.961653,0.273968,0.118287,0.119734,-0.160198,-11.712439,-32.601028,-5.558240,,,,,,,5
1508446979.198268,3.091826,1.261054,-1.354870,1.794394,-0.651274,-0.455012,0.015163,-0.952412,0.304436,0.092426,0.164677,-0.211724,-11.797095,-32.664890,-4.973495,,,,,,,5
1508446979.218282,3.032397,1.223245,-1.318661,1.825999,-1.445513,-0.643812,0.037118,-0.940210,0.338568,0.016090,-0.072684,-0.293264,-11.444071,-33.031956,-2.970769,,,,,,,5
1508446979.238297,3.001628,1.190072,-1.312940,1.512901,-1.072679,-0.102046,0.051840,-0.928396,0.367959,0.098551,-0.220683,-0.390283,-11.211855,-33.209373,-1.527794,,,,,,,5
1508446979.258304,2.999477,1.164074,-1.330062,1.252420,-0.834514,0.219666,0.056032,-0.918423,0.391613,0.186796,-0.286625,-0.446437,-11.212572,-33.231396,-0.924635,,,,,,,5
1508446979.278298,2.994500,1.142648,-1.344931,1.044096,-0.972040,0.049613,0.060851,-0.909736,0.410703,0.086732,-0.233925,-0.330122,-11.393315,-33.177563,0.586468,,,,,,,5
1508446979.298329,2.979483,1.125151,-1.347285,0.704636,-0.718605,-0.134004,0.069570,-0.902333,0.425389,-0.081228,-0.256267,-0.346165,-12.434074,-32.271069,-0.259625,,,,,,,5
1508446979.318339,2.967144,1.118298,-1.340058,0.088114,-0.071898,-0.299381,0.075885,-0.899357,0.430578,-0.165653,-0.249660,-0.414739,-12.388446,-32.289650,0.020917,,,,,,,5
1508446979.338356,2.939639,1.122332,-1.311422,-0.584110,-0.249105,-0.646847,0.086970,-0.901114,0.424770,-0.006022,-0.608545,-1.067302,-12.008376,-32.432850,0.068831,,,,,,,5
1508446979.358364,2.893570,1.137261,-1.284347,-0.886546,-1.562700,-0.243604,0.103125,-0.907486,0.407227,0.097711,-0.669876,-1.126420,-11.739326,-32.530731,-0.188129,,,,,,,5
1508446979.378362,2.835941,1.155729,-1.261290,-1.259032,-1.771924,-0.284103,0.121344,-0.915089,0.384561,0.160516,-0.565410,-1.007211,-11.622465,-32.571304,-0.352138,,,,,,,5
1508446979.398388,2.754740,1.185686,-1.198084,-2.093280,-0.816307,-0.851387,0.141728,-0.926757,0.347900,-0.116887,-0.409150,-0.366943,-11.467396,-32.620380,-0.710837,,,,,,,5
1508446979.418401,2.646101,1.218594,-1.095051,-2.370083,-0.528619,-0.951411,0.164019,-0.938615,0.303478,-0.343371,-0.481978,0.037006,-10.666756,-32.804768,-2.482528,,,,,,,5
1508446979.438390,2.536702,1.254319,-0.985892,-2.467215,-0.218189,-0.293966,0.176982,-0.950338,0.255999,-0.411312,-0.622187,0.244917,-10.384266,-32.831474,-3.218202,,,,,,,5
1508446979.458416,2.451323,1.296977,-0.901946,-2.432621,-0.277607,0.642185,0.172182,-0.962745,0.208506,-0.282320,-0.882943,0.372655,-10.268095,-32.556038,-5.546714,,,,,,,5
1508446979.478437,2.355778,1.348904,-0.804219,-3.002965,0.195305,0.909345,0.155682,-0.975483,0.155552,-0.089413,-0.553265,0.067989,-10.799973,-32.060329,-7.182710,,,,,,,5
1508446979.498447,2.147954,1.406654,-0.577541,-3.692127,1.012329,0.830807,0.136937,-0.986559,0.089162,-0.042226,-0.377394,0.052272,-11.175655,-31.526356,-8.791427,,,,,,,5
1508446979.518461,1.733566,1.448289,-0.140367,-3.494819,0.685754,0.735297,0.120586,-0.992505,0.019803,0.101048,-0.346316,0.175555,-11.547421,-30.349625,-11.901807,,,,,,,5
1508446979.538460,1.184070,1.454807,0.414659,-3.050197,-0.211436,0.636073,0.107182,-0.993281,-0.043648,0.257609,-0.306417,0.314003,-11.784731,-29.582232,-13.494712,,,,,,,5
1508446979.558483,0.743389,1.431476,0.852851,-2.874566,-0.239018,0.673703,0.093986,-0.990311,-0.102234,0.301721,-0.220932,0.391311,-12.105721,-28.818270,-14.800484,,,,,,,5
1508446979.578497,0.466975,1.393797,1.131351,-2.703402,-0.036946,0.764707,0.079268,-0.984376,-0.157225,0.056276,0.199266,0.421828,-12.769883,-27.194344,-17.131645,,,,,,,5
1508446979.598489,0.304105,1.353369,1.296295,-2.343400,-0.050105,0.701655,0.064595,-0.976456,-0.205820,-0.049580,0.326980,0.524393,-13.189662,-26.085188,-18.484894,,,,,,,5
1508446979.618518,0.209644,1.312700,1.395363,-2.246430,0.190594,0.587645,0.053118,-0.966878,-0.249652,-0.062701,0.333791,0.606280,-13.370604,-25.559855,-19.079210,,,,,,,5
1508446979.638535,0.144280,1.271032,1.469177,-2.209370,0.345934,0.661536,0.042458,-0.955406,-0.292227,-0.017036,0.282509,0.722663,-13.708774,-23.968811,-20.824535,,,,,,,5
1508446979.658545,0.107425,1.225742,1.525107,-2.362782,1.033893,0.514920,0.036266,-0.941057,-0.336298,0.079105,0.335802,0.763010,-13.730143,-22.800451,-22.084341,,,,,,,5
1508446979.678555,0.094835,1.186468,1.563204,-1.776108,1.218248,0.463470,0.035504,-0.927050,-0.373252,0.082843,0.378573,0.716819,-13.605188,-22.213066,-22.750256,,,,,,,5
1508446979.698544,0.092411,1.158502,1.592542,-1.257506,1.192363,0.430465,0.036978,-0.916204,-0.399002,0.013117,0.508764,0.720398,-13.045093,-20.812607,-24.346592,,,,,,,5
1508446979.718580,0.088484,1.140695,1.619229,-0.742133,0.894864,0.495185,0.036846,-0.908923,-0.415332,0.064747,0.517352,0.720080,-12.686699,-20.171432,-25.065046,,,,,,,5
1508446979.738592,0.075309,1.133903,1.649255,-0.155591,0.588115,0.659506,0.031835,-0.906071,-0.421927,0.057276,0.519108,0.680213,-12.539097,-19.839153,-25.402256,,,,,,,5
1508446979.758580,0.053913,1.140193,1.679388,0.510213,0.103149,0.605010,0.022494,-0.908714,-0.416813,0.071974,0.452644,0.567463,-12.510697,-19.658283,-25.556404,,,,,,,5
1508446979.778615,0.026821,1.157586,1.702411,1.059121,-0.594460,0.482309,0.010769,-0.915836,-0.401407,0.058842,0.318104,0.322489,-12.842598,-19.871719,-25.224550,,,,,,,5
1508446979.798620,-0.016857,1.186956,1.724222,1.734804,-1.523633,0.386033,-0.006312,-0.927233,-0.374431,-0.057897,0.073687,-0.109089,-13.294286,-20.234314,-24.696762,,,,,,,5
1508446979.818640,-0.091013,1.226775,1.755644,2.067241,-2.617388,0.563633,-0.030654,-0.941406,-0.335880,-0.120377,-0.466919,-1.113431,-14.599709,-21.202625,-23.095295,,,,,,,5
1508446979.838651,-0.193994,1.246566,1.810012,0.298094,-2.133431,0.769797,-0.061415,-0.947896,-0.312604,-0.479921,-0.768351,-1.690936,-16.103872,-21.682907,-21.601212,,,,,,,5
1508446979.858662,-0.219277,1.238588,1.833064,-0.426523,0.978711,0.216761,-0.070941,-0.945324,-0.318322,-0.536297,-0.380176,-0.485480,-16.759203,-21.507912,-21.275206,,,,,,,5
1508446979.878677,-0.185684,1.232334,1.831910,-0.195593,1.721719,0.073359,-0.061300,-0.943266,-0.326329,-0.229456,0.070158,-0.235148,-16.174818,-21.247969,-21.977139,,,,,,,5
1508446979.898690,-0.168576,1.230809,1.849955,0.008186,1.782346,0.428582,-0.055950,-0.942759,-0.328748,-0.054569,-0.050619,-0.287631,-15.668659,-21.170738,-22.414026,,,,,,,5
1508446979.918700,-0.143921,1.227721,1.869129,-0.075753,2.427292,0.144091,-0.048246,-0.941725,-0.332907,-0.092486,0.041380,-0.042627,-15.194063,-21.071135,-22.830753,,,,,,,5
1508446979.938712,-0.072222,1.237685,1.842811,0.901534,1.924021,-0.843759,-0.023595,-0.945030,-0.326133,0.019765,-0.029961,0.706443,-13.525141,-21.147490,-23.789700,,,,,,,5
1508446979.958724,0.000532,1.273854,1.777508,2.229646,-0.201033,-1.057999,0.000156,-0.956236,-0.292597,0.093747,-0.606341,0.741236,-12.579912,-22.093536,-23.446045,,,,,,,5
1508446979.978735,0.050091,1.313268,1.726661,1.254663,0.733825,-0.293401,0.012752,-0.967022,-0.254372,0.160664,-0.991199,0.309670,-12.423606,-22.753586,-22.891567,,,,,,,5
1508446979.998749,0.084876,1.298710,1.748169,-1.739931,3.195434,0.520631,0.022782,-0.963212,-0.267774,0.662154,-0.286940,0.113950,-11.325541,-23.319345,-22.891827,,,,,,,5
1508446980.018760,0.055242,1.278827,1.819382,-0.121499,1.049718,1.124366,0.015893,-0.957679,-0.287399,0.435676,0.337287,0.554001,-10.515743,-22.462040,-24.103352,,,,,,,5
1508446980.038771,-0.007128,1.309321,1.874702,2.194676,-1.332646,0.387844,-0.001843,-0.966010,-0.258500,0.007519,0.812125,0.795838,-10.718018,-22.514040,-23.965343,,,,,,,5
1508446980.058789,-0.032815,1.357221,1.858851,2.367996,-2.049700,-0.490746,-0.006954,-0.977279,-0.211842,0.090176,0.456634,1.092518,-11.743335,-23.778221,-22.198780,,,,,,,5
1508446980.078796,0.019915,1.404346,1.794550,2.387273,0.659493,-0.720653,0.003299,-0.986179,-0.165650,0.060437,-0.015957,0.849442,-11.982491,-24.921019,-20.771576,,,,,,,5
1508446980.098791,0.188646,1.450189,1.662187,2.332071,2.274452,-0.667715,0.022563,-0.992736,-0.118181,0.022420,-0.109483,0.510500,-11.596105,-25.498627,-20.284130,,,,,,,5
1508446980.118813,0.467962,1.488495,1.415724,2.114026,1.078060,-0.456406,0.037082,-0.996615,-0.073370,-0.201785,-0.408384,-0.587808,-13.234993,-26.862686,-18.989628,,,,,,,5
1508446980.138808,0.833558,1.520431,1.042275,1.946647,-1.130987,0.297575,0.037271,-0.998732,-0.033844,-0.007608,-0.280138,-0.339691,-13.043153,-27.671604,-17.931353,,,,,,,5
1508446980.158817,1.780428,1.548739,0.060722,2.039526,-1.885022,0.981338,0.021573,-0.999757,0.004590,0.102024,-0.113341,-0.154996,-13.383234,-27.959492,-17.220070,,,,,,,5
1508446980.178838,3.108370,1.521999,-1.306098,2.335451,-1.868049,1.018930,0.001620,-0.998810,0.048751,0.215039,0.264587,0.146135,-15.082422,-28.552719,-14.650517,,,,,,,5
1508446980.198868,-3.042367,1.472116,-1.463088,2.451174,-0.795566,0.294541,-0.009760,-0.995135,0.098036,0.074472,0.584033,0.114778,-15.971631,-28.960344,-12.789860,,,,,,,5
1508446980.218879,-3.128908,1.432861,-1.386368,1.732742,-0.155789,-0.652140,-0.001744,-0.990502,0.137487,0.046391,0.417824,0.122630,-16.115580,-29.370186,-11.621326,,,,,,,5
1508446980.238894,3.060214,1.400723,-1.285095,1.525270,0.390567,-0.896201,0.013759,-0.985572,0.168695,0.017659,-0.034997,-0.036966,-15.577726,-30.113022,-10.388228,,,,,,,5
1508446980.258889,2.988986,1.368543,-1.207072,1.518979,0.149494,-0.879416,0.030536,-0.979616,0.198543,-0.106861,-0.236387,-0.130534,-15.109923,-30.551283,-9.781832,,,,,,,5
1508446980.278915,2.950049,1.334965,-1.172722,1.655929,-0.589479,-0.438040,0.044481,-0.972320,0.229378,-0.198076,-0.255737,-0.156685,-14.687310,-30.962122,-9.110709,,,,,,,5
1508446980.298929,2.951590,1.299858,-1.196886,1.827734,-1.309865,0.159090,0.050546,-0.963520,0.262819,-0.372064,0.017933,-0.037157,-14.528563,-31.529060,-7.225930,,,,,,,5
1508446980.318940,2.969048,1.265660,-1.238334,1.758012,-0.849272,0.320704,0.051580,-0.953806,0.295962,-0.102636,0.104334,0.058454,-14.833025,-31.695425,-5.723322,,,,,,,5
1508446980.338950,2.994593,1.229802,-1.276494,1.974086,-0.467189,0.251439,0.048983,-0.942423,0.330817,0.241895,0.144922,-0.022452,-15.046615,-31.759865,-4.720726,,,,,,,5
1508446980.358959,2.998728,1.187771,-1.294169,2.165521,-0.699276,-0.165601,0.053211,-0.927538,0.369921,0.384975,0.157839,-0.209292,-15.217807,-31.897177,-2.891953,,,,,,,5
1508446980.378975,2.978401,1.145565,-1.289695,2.012977,-0.967131,-0.534400,0.067023,-0.910943,0.407051,0.168511,0.048028,-0.496330,-15.047020,-32.081604,-1.316394,,,,,,,5
1508446980.398988,2.939989,1.104192,-1.275961,1.921919,-1.470084,-0.682466,0.090080,-0.893101,0.440745,0.037820,-0.192440,-0.591471,-14.871940,-32.185959,-0.514130,,,,,,,5
1508446980.418988,2.904978,1.071752,-1.268794,1.250478,-1.286952,-0.363123,0.112187,-0.878041,0.465251,-0.132756,-0.630413,-0.653804,-14.235929,-32.423054,1.859759,,,,,,,5
1508446980.439004,2.883755,1.057226,-1.268522,0.407759,-0.985159,-0.161161,0.125274,-0.870996,0.475050,-0.148559,-0.638846,-0.658323,-14.164106,-32.436295,2.154016,,,,,,,5
1508446980.459020,2.855387,1.053402,-1.259532,0.007668,-1.043823,-0.289083,0.139638,-0.869111,0.474497,-0.217259,-0.542907,-0.562068,-13.941683,-32.463745,3.018225,,,,,,,5
1508446980.479017,2.828101,1.055035,-1.249476,-0.266333,-0.799926,-0.152744,0.152093,-0.869917,0.469160,-0.459924,-0.921617,-0.668089,-13.694758,-32.537910,3.333611,,,,,,,5
1508446980.499044,2.809312,1.069552,-1.236483,-1.232619,-0.106346,-0.030297,0.156744,-0.876985,0.454233,-0.671942,-1.136488,-1.044504,-13.492356,-32.635128,3.206201,,,,,,,5
1508446980.519048,2.790738,1.113792,-1.212600,-2.882844,0.194606,0.416279,0.151662,-0.897378,0.414380,-0.741048,-1.099021,-1.165052,-13.491002,-32.677795,2.744008,,,,,,,5
1508446980.539074,2.764270,1.185861,-1.170575,-4.062044,1.082440,0.462583,0.138346,-0.926823,0.349084,0.520147,-0.292690,-0.438516,-13.881516,-32.627728,-0.331262,,,,,,,5
1508446980.559084,2.721185,1.262535,-1.093262,-3.783712,1.340378,0.141393,0.123828,-0.952863,0.276983,0.693326,-0.207782,0.178401,-14.058928,-32.375164,-3.401503,,,,,,,5
1508446980.579094,2.627632,1.317610,-0.991884,-2.704829,-0.579562,-0.086461,0.123149,-0.968119,0.218128,0.457281,-0.482336,0.363323,-14.031292,-32.133286,-5.286747,,,,,,,5
1508446980.599108,2.494967,1.358379,-0.892466,-2.197011,-2.365817,0.461529,0.127020,-0.977524,0.168263,0.237375,-0.692215,0.383053,-14.209166,-31.737633,-6.942424,,,,,,,5
1508446980.619118,2.383269,1.408536,-0.829017,-2.478989,-2.308704,1.560190,0.111098,-0.986865,0.117283,-0.034545,-0.626493,0.257778,-14.835082,-31.336000,-7.439778,,,,,,,5
1508446980.639130,2.175633,1.478565,-0.649668,-3.514369,-0.866054,2.011639,0.075762,-0.995750,0.052371,-0.177355,-0.559792,0.272870,-17.081146,-28.513128,-6.994510,,,,,,,5
1508446980.659144,1.044509,1.524286,0.482513,-3.819772,0.255511,1.588328,0.040202,-0.998919,-0.023355,-0.229533,-0.294645,0.196634,-18.826366,-26.616835,-9.528865,,,,,,,5
1508446980.679155,0.137514,1.475642,1.396844,-3.339016,0.263699,1.268620,0.013024,-0.995476,-0.094114,-0.026940,-0.243690,0.379926,-19.525223,-25.282753,-11.542762,,,,,,,5
1508446980.699167,-0.035999,1.416401,1.580274,-2.923216,0.438552,0.904848,-0.005535,-0.988105,-0.153683,0.057033,-0.230859,0.514431,-19.788874,-24.656187,-12.416126,,,,,,,5
1508446980.719180,-0.106859,1.357665,1.660108,-2.812506,0.336659,0.947210,-0.022560,-0.977373,-0.210314,0.200355,0.074221,0.664584,-20.283661,-22.900805,-14.758505,,,,,,,5
1508446980.739191,-0.148564,1.304292,1.707219,-2.429045,0.153615,0.912970,-0.038982,-0.964697,-0.260459,0.191494,0.283789,0.640007,-20.610088,-21.708088,-16.052114,,,,,,,5
1508446980.759187,-0.181443,1.259808,1.743095,-1.930524,0.075439,0.809487,-0.055217,-0.952032,-0.300977,0.146907,0.378362,0.678708,-20.872725,-20.858974,-16.820223,,,,,,,5
1508446980.779217,-0.193701,1.222946,1.762145,-1.671536,0.455790,0.555309,-0.065616,-0.940108,-0.334503,0.047336,0.433729,0.788406,-21.175695,-19.662800,-17.850813,,,,,,,5
1508446980.799227,-0.187412,1.190800,1.770636,-1.456369,0.839681,0.395535,-0.069108,-0.928666,-0.364422,0.040177,0.496964,0.803463,-21.140507,-18.867699,-18.729015,,,,,,,5
1508446980.819219,-0.170685,1.165099,1.773340,-1.132439,1.006697,0.206681,-0.067036,-0.918827,-0.388925,0.042545,0.565007,0.848077,-20.981329,-18.363146,-19.397579,,,,,,,5
1508446980.839244,-0.144758,1.146728,1.768758,-0.790270,1.134159,-0.050196,-0.059356,-0.911422,-0.407169,0.088714,0.607849,0.878390,-20.529255,-17.766047,-20.410892,,,,,,,5
1508446980.859263,-0.108053,1.136280,1.753870,-0.410714,1.169030,-0.349424,-0.045399,-0.907074,-0.418516,0.102543,0.623123,0.898787,-20.139412,-17.588531,-20.945999,,,,,,,5
1508446980.879247,-0.061013,1.134529,1.729397,0.052813,1.294352,-0.592524,-0.025766,-0.906335,-0.421773,0.112039,0.632699,0.876867,-19.674892,-17.562695,-21.404150,,,,,,,5
1508446980.899288,-0.007591,1.143322,1.697639,0.662126,1.111997,-0.699430,-0.003147,-0.910016,-0.414561,0.132755,0.604230,0.539561,-18.528030,-17.995033,-22.058517,,,,,,,5
1508446980.919298,0.036873,1.166078,1.665927,1.458634,0.579727,-0.591042,0.014516,-0.919213,-0.393492,0.128550,0.406533,0.124373,-19.206583,-20.609295,-20.850134,,,,,,,5
1508446980.939309,0.062939,1.204101,1.646051,2.160489,0.216035,0.014992,0.022551,-0.933517,-0.357822,0.070696,-0.322525,-1.300869,-18.893824,-21.264027,-20.475071,,,,,,,5
1508446980.959307,0.002788,1.240769,1.693470,1.270643,-1.243294,1.487602,0.000904,-0.946034,-0.324067,-0.391727,-1.396633,-2.865630,-19.211964,-22.101488,-19.255875,,,,,,,5
1508446980.979334,-0.148206,1.247140,1.830899,0.149766,-0.606529,2.350857,-0.046962,-0.948079,-0.314549,-0.420674,-0.250728,-0.700359,-20.521334,-21.609152,-18.446774,,,,,,,5
1508446980.999346,-0.245743,1.240971,1.931386,0.051641,0.071998,1.035601,-0.078792,-0.946099,-0.314147,-0.065999,0.207925,-0.150193,-21.305941,-20.952538,-18.314257,,,,,,,5
1508446981.019361,-0.251667,1.240841,1.948539,-0.067149,0.831001,-0.054039,-0.080682,-0.946057,-0.313795,0.183099,-0.114215,-0.239932,-21.568058,-20.595549,-18.412125,,,,,,,5
1508446981.039346,-0.204055,1.241403,1.931269,0.224541,2.038674,-0.370141,-0.065549,-0.946239,-0.316758,0.140118,-0.200673,0.467103,-21.208822,-20.608459,-18.810669,,,,,,,5
1508446981.059382,-0.123781,1.261463,1.891951,1.214924,1.742775,-0.990389,-0.037586,-0.952537,-0.302094,0.224109,-0.119103,0.661729,-20.507156,-20.802528,-19.366863,,,,,,,5
1508446981.079396,-0.053584,1.291073,1.826748,1.355201,-0.097008,-0.919284,-0.014787,-0.961132,-0.275694,0.230500,-0.573948,0.667845,-19.093992,-22.094231,-19.381138,,,,,,,5
1508446981.099406,-0.023870,1.305171,1.822488,0.213354,2.497173,0.415895,-0.006266,-0.964929,-0.262438,-0.031119,-0.665549,0.311876,-18.662603,-22.633530,-19.177971,,,,,,,5
1508446981.119418,0.000687,1.292645,1.863237,-0.993347,2.835980,0.514794,0.000189,-0.961565,-0.274578,0.254649,-0.487501,0.105755,-18.225229,-22.548702,-19.691650,,,,,,,5
1508446981.139416,-0.019901,1.283555,1.906871,0.190899,-0.109110,0.606457,-0.005638,-0.959029,-0.283252,0.263664,0.173156,0.555392,-17.176250,-21.797041,-21.406292,,,,,,,5
1508446981.159442,-0.077132,1.308695,1.931455,1.809340,-2.262284,-0.010011,-0.019966,-0.965848,-0.258341,0.066383,0.485974,0.972101,-17.841862,-22.012444,-20.627270,,,,,,,5
1508446981.179456,-0.081958,1.356777,1.899859,2.597032,-1.148993,-0.810808,-0.017387,-0.977185,-0.211676,-0.020561,0.518460,1.150503,-18.268539,-22.431021,-19.785694,,,,,,,5
1508446981.199444,0.003004,1.414197,1.814415,2.917903,0.607542,-0.922888,0.000469,-0.987763,-0.155960,-0.010265,0.115495,1.000152,-18.220968,-24.324356,-17.455259,,,,,,,5
1508446981.219460,0.193486,1.470816,1.640304,2.849303,0.772988,-0.709315,0.019192,-0.995006,-0.097951,-0.013943,-0.038121,0.249547,-17.495167,-25.629642,-16.291241,,,,,,,5
1508446981.239477,0.485113,1.518554,1.341156,2.443204,-1.004624,0.045151,0.024350,-0.998636,-0.046194,-0.118481,-0.415885,-0.583018,-17.193239,-26.429422,-15.304974,,,,,,,5
1508446981.259505,1.497744,1.556188,0.295132,2.256302,-1.855556,0.620040,0.014569,-0.999893,-0.001066,0.082446,-0.131088,-0.092363,-17.783552,-27.186745,-13.152571,,,,,,,5
1508446981.279515,3.108911,1.525824,-1.350190,2.358293,-1.510247,0.649891,0.001469,-0.998989,0.044933,0.096065,0.115444,0.127354,-18.591875,-27.496479,-11.253881,,,,,,,5
1508446981.299526,-3.093882,1.477913,-1.452069,2.385411,-0.768371,0.152375,-0.004423,-0.995689,0.092644,0.004820,0.303474,0.169410,-19.033230,-27.717819,-9.890541,,,,,,,5
1508446981.319540,3.129297,1.432308,-1.397229,2.193514,-0.052496,-0.522650,0.001697,-0.990426,0.138036,-0.026935,0.334740,0.101908,-19.142988,-28.252241,-7.982539,,,,,,,5
1508446981.339551,3.051471,1.393453,-1.314431,1.678236,0.359430,-0.674592,0.015877,-0.984316,0.175699,-0.091256,0.527147,-0.051675,-18.722574,-28.823587,-6.857838,,,,,,,5
1508446981.359562,3.035688,1.361676,-1.286810,1.559337,0.576355,-0.329367,0.021945,-0.978214,0.206437,-0.157382,0.129367,-0.197785,-18.436443,-29.134941,-6.294184,,,,,,,5
1508446981.379575,3.016402,1.328633,-1.269578,1.689923,-0.538360,-0.403664,0.029943,-0.970821,0.237927,-0.199559,-0.194797,-0.158490,-18.131857,-29.529921,-5.252012,,,,,,,5
1508446981.399575,2.991182,1.293042,-1.264988,1.713262,-1.221657,-0.159097,0.041087,-0.961674,0.271101,-0.201670,-0.205044,-0.071226,-18.016529,-29.757910,-4.270312,,,,,,,5
1508446981.419599,3.009351,1.265691,-1.304033,1.306036,-0.734390,0.591749,0.039609,-0.953815,0.297771,-0.183713,-0.073483,-0.068752,-18.023909,-29.888468,-3.190971,,,,,,,5
1508446981.439612,3.043199,1.240641,-1.350719,1.408286,-0.467071,0.495903,0.031847,-0.945992,0.322622,0.012571,0.153695,-0.059805,-18.554169,-29.690880,-1.599507,,,,,,,5
1508446981.459622,3.054261,1.208010,-1.375454,1.821140,-0.768161,0.126423,0.030953,-0.934912,0.353528,0.203132,0.154898,-0.055905,-18.778486,-29.588964,-0.474908,,,,,,,5
1508446981.479635,3.039189,1.167850,-1.382525,2.063542,-1.251513,-0.138128,0.040086,-0.919910,0.390076,0.334533,0.069278,-0.138352,-18.796444,-29.574684,0.629079,,,,,,,5
1508446981.499647,3.010753,1.128758,-1.381850,1.805211,-1.453824,-0.310772,0.055812,-0.903881,0.424127,0.363592,-0.090824,-0.348214,-18.609928,-29.573576,2.727290,,,,,,,5
1508446981.519659,2.970146,1.096093,-1.374526,1.480905,-1.874797,-0.442602,0.077981,-0.889428,0.450373,0.221473,-0.347892,-0.540415,-18.276829,-29.593666,4.305408,,,,,,,5
1508446981.539649,2.924370,1.070522,-1.367421,1.037897,-1.946583,-0.380299,0.103377,-0.877451,0.468394,0.149263,-0.417349,-0.590678,-18.055977,-29.606428,5.079874,,,,,,,5
1508446981.559674,2.877351,1.054956,-1.357618,0.493935,-1.951849,-0.449742,0.128830,-0.869878,0.476145,-0.145111,-0.491846,-0.525187,-17.344412,-29.646624,6.972307,,,,,,,5
1508446981.579695,2.826020,1.048395,-1.343131,0.080639,-1.836664,-0.382793,0.154859,-0.866624,0.474323,-0.403378,-0.538757,-0.374225,-16.782854,-29.755342,7.830673,,,,,,,5
1508446981.599706,2.790233,1.047267,-1.333732,-0.077662,-1.119848,-0.176998,0.172067,-0.866060,0.469396,-0.553155,-0.596037,-0.578436,-16.440166,-29.830791,8.258862,,,,,,,5
1508446981.619720,2.762604,1.052388,-1.321143,-0.621863,-0.703312,-0.230153,0.183325,-0.868609,0.460337,-0.612692,-0.788007,-1.026163,-16.085192,-29.946640,8.534008,,,,,,,5
1508446981.639730,2.724404,1.075977,-1.292102,-1.833751,-0.648135,-0.128317,0.192415,-0.880055,0.434143,-0.743119,-0.932735,-1.185318,-15.845303,-30.192122,8.107170,,,,,,,5
1508446981.659741,2.670635,1.122638,-1.242588,-3.016104,-0.224156,0.027280,0.196608,-0.901247,0.386134,-0.262114,-0.699400,-0.862666,-15.738777,-30.456932,7.282189,,,,,,,5
1508446981.679755,2.593568,1.184341,-1.151570,-3.852942,0.562581,-0.228183,0.196369,-0.926251,0.321711,0.324474,-0.335987,-0.324229,-15.712412,-30.961348,4.783209,,,,,,,5
1508446981.699767,2.474433,1.242270,-1.012268,-3.555575,0.407935,-0.356809,0.199641,-0.946519,0.253467,0.344427,-0.343780,0.417722,-15.555728,-31.329533,2.200823,,,,,,,5
1508446981.719777,2.325373,1.286505,-0.862441,-2.952890,-0.789572,-0.036511,0.204345,-0.959861,0.192121,0.141267,-0.587289,0.626940,-15.419508,-31.468594,0.574711,,,,,,,5
1508446981.739791,2.158541,1.328612,-0.717181,-2.709209,-1.476044,0.851914,0.199580,-0.970816,0.132979,0.084890,-0.811288,0.503923,-15.565516,-31.374844,-1.303072,,,,,,,5
1508446981.759785,1.968362,1.381531,-0.544131,-3.073064,-0.745199,1.695935,0.173464,-0.982143,0.072842,-0.056536,-0.733373,0.129581,-16.130035,-31.032585,-2.272606,,,,,,,5
1508446981.779813,1.589610,1.432952,-0.165015,-3.730668,0.036490,1.846550,0.137384,-0.990515,0.002585,-0.209222,-0.610117,0.067178,-16.939234,-30.480951,-3.512543,,,,,,,5
1508446981.799828,0.969131,1.444485,0.463933,-3.641966,0.182243,1.617408,0.103854,-0.992033,-0.071304,-0.143908,-0.300005,0.224594,-18.529684,-28.957077,-6.819272,,,,,,,5
1508446981.819839,0.486700,1.415653,0.957763,-3.143871,0.488040,1.648369,0.072271,-0.987989,-0.136579,0.065927,-0.240664,0.520032,-19.196949,-28.098312,-8.386058,,,,,,,5
1508446981.839849,0.223701,1.371846,1.237048,-2.712366,0.565781,1.464595,0.043845,-0.980275,-0.192716,0.135568,-0.160732,0.586881,-19.810205,-27.188677,-9.833392,,,,,,,5
1508446981.859864,0.081292,1.328540,1.391667,-2.231725,0.417131,1.255501,0.019480,-0.970799,-0.239102,0.138738,0.096959,0.630856,-23.014906,-23.989420,-11.583049,,,,,,,5
1508446981.879874,0.000423,1.286822,1.488118,-2.075087,0.746861,1.092008,0.000118,-0.959950,-0.280173,0.046787,0.180103,0.709280,-23.451771,-22.896830,-12.848921,,,,,,,5
1508446981.899878,-0.038555,1.246725,1.549424,-1.926912,1.118940,0.885888,-0.012274,-0.947947,-0.318192,0.005942,0.281748,0.729111,-23.633446,-22.123240,-13.833570,,,,,,,5
1508446981.919903,-0.051449,1.209671,1.591589,-1.749029,1.475293,0.743885,-0.018170,-0.935500,-0.352860,-0.047946,0.440962,0.787628,-23.645592,-20.930302,-15.561285,,,,,,,5
1508446981.939909,-0.047711,1.176152,1.623816,-1.579720,1.791433,0.645436,-0.018337,-0.923133,-0.384042,-0.071324,0.485756,0.819803,-23.488407,-20.265198,-16.642164,,,,,,,5
1508446981.959903,-0.034321,1.146527,1.651070,-1.363540,1.983336,0.569639,-0.014126,-0.911340,-0.411413,-0.069859,0.559060,0.878316,-23.220509,-19.630806,-17.742168,,,,,,,5
1508446981.979935,-0.014733,1.124236,1.672905,-0.908634,1.879634,0.450870,-0.006362,-0.901938,-0.431819,0.107986,0.632422,0.881190,-22.421146,-18.524435,-19.836399,,,,,,,5
1508446981.999945,-0.004466,1.114837,1.692765,-0.163972,1.071869,0.451082,-0.001967,-0.897839,-0.440320,0.224607,0.653637,0.825085,-21.927601,-18.065369,-20.788649,,,,,,,5
1508446982.019958,-0.012180,1.123148,1.713886,0.769127,0.310744,0.450756,-0.005272,-0.901467,-0.432815,0.303520,0.596902,0.756591,-21.783846,-17.936422,-21.049799,,,,,,,5
1508446982.039971,-0.026399,1.149012,1.730921,1.605518,-0.065453,0.235908,-0.010806,-0.912360,-0.409247,0.409747,0.556403,0.573553,-21.851690,-18.229893,-20.724861,,,,,,,5
1508446982.059968,-0.030417,1.191001,1.732392,2.382524,-0.080211,-0.220853,-0.011275,-0.928741,-0.370559,0.512953,0.423156,0.245925,-21.935196,-18.968843,-19.959343,,,,,,,5
1508446982.079993,0.004645,1.246662,1.708439,2.897732,1.025619,-0.462784,0.001479,-0.947927,-0.318485,0.424500,-0.152156,-0.645596,-21.781326,-19.837143,-19.271915,,,,,,,5
1508446982.100003,0.000507,1.274581,1.717966,0.065335,-0.411618,0.654155,0.000148,-0.956448,-0.291902,-0.446666,-1.612628,-3.381850,-21.364120,-21.017975,-18.470631,,,,,,,5
1508446982.120003,-0.114211,1.260825,1.828629,-0.590021,-0.071641,2.081083,-0.034762,-0.952342,-0.303044,-0.571149,-0.679173,-0.823466,-21.880434,-20.554850,-18.387218,,,,,,,5
1508446982.140029,-0.203569,1.247392,1.920015,-0.296228,-0.350768,0.987675,-0.064248,-0.948159,-0.311235,-0.383613,-0.142875,-0.554656,-22.520439,-19.724304,-18.523685,,,,,,,5
1508446982.160043,-0.230826,1.246896,1.940374,0.216460,-0.258743,0.041160,-0.072814,-0.948001,-0.309825,0.008071,-0.011349,0.062725,-23.209202,-19.003279,-18.426983,,,,,,,5
1508446982.180054,-0.218034,1.253660,1.931523,0.345483,0.553745,-0.298943,-0.067456,-0.950132,-0.304464,0.071362,-0.106173,0.179357,-23.154985,-19.159702,-18.332962,,,,,,,5
1508446982.200065,-0.187716,1.267774,1.916615,0.924733,0.883439,-0.408905,-0.055687,-0.954439,-0.293164,0.097313,-0.061934,0.376065,-22.868452,-19.391710,-18.448324,,,,,,,5
1508446982.220073,-0.168623,1.299136,1.923262,1.773375,1.493149,0.003164,-0.045033,-0.963327,-0.264526,-0.080669,-0.162284,0.697829,-22.230028,-20.126163,-18.442030,,,,,,,5
1508446982.240090,-0.151210,1.320479,1.953406,0.416729,2.887637,0.303926,-0.037314,-0.968834,-0.244884,-0.508447,-0.464012,0.356014,-21.763449,-20.540529,-18.541416,,,,,,,5
1508446982.260077,-0.114925,1.299673,1.992804,-1.564111,4.033585,0.825056,-0.030711,-0.963471,-0.266047,-0.084707,-0.393249,-0.000310,-21.041866,-20.548878,-19.347574,,,,,,,5
1508446982.280102,-0.134989,1.273670,2.067336,-0.524559,1.196605,1.430943,-0.039401,-0.956182,-0.290111,0.650485,0.229985,0.703990,-19.435043,-19.185301,-22.215950,,,,,,,5
1508446982.300102,-0.257882,1.293227,2.169803,2.186853,-2.386697,0.913984,-0.069884,-0.961724,-0.264957,0.738265,0.405313,0.838077,-19.798464,-18.833126,-22.196381,,,,,,,5
1508446982.320135,-0.377756,1.346083,2.233060,2.855400,-2.680814,-0.763016,-0.082186,-0.974858,-0.207116,0.516284,0.530720,1.111032,-21.142984,-19.515541,-20.284554,,,,,,,5
1508446982.340152,-0.347401,1.410379,2.181902,2.776224,0.040026,-1.929637,-0.054381,-0.987161,-0.150188,0.224944,-0.137137,0.939433,-21.506403,-21.460476,-17.783920,,,,,,,5
1508446982.360162,-0.136231,1.469418,1.991958,2.416412,1.550265,-1.794113,-0.013745,-0.994866,-0.100267,-0.075947,-0.462929,0.384508,-20.376778,-23.191601,-16.919863,,,,,,,5
1508446982.380087,0.243815,1.513982,1.636602,2.209631,0.850383,-0.859374,0.013708,-0.998387,-0.055104,-0.399465,-0.550533,-0.343669,-19.411255,-24.264542,-16.546312,,,,,,,5
1508446982.400102,1.060815,1.550245,0.815016,2.316359,-0.847143,0.089975,0.017935,-0.999789,-0.010032,-0.289343,-0.234846,-0.216348,-18.873186,-25.442648,-15.356422,,,,,,,5
1508446982.420090,2.821870,1.531644,-0.975118,2.396106,-1.565448,0.357341,0.012302,-0.999234,0.037158,0.000271,0.033276,0.059445,-19.205545,-25.905645,-14.120543,,,,,,,5
1508446982.440125,3.051084,1.487273,-1.230728,2.228832,-1.039814,0.269049,0.007540,-0.996514,0.083085,0.094175,0.069863,0.095916,-19.653393,-26.285181,-12.734937,,,,,,,5
1508446982.460136,-3.136971,1.446276,-1.335318,2.014687,-0.108698,0.686430,-0.000574,-0.992257,0.124197,0.145960,0.608300,0.099680,-20.238375,-26.840670,-10.456184,,,,,,,5
1508446982.480147,-3.091637,1.402126,-1.378655,2.150793,0.113392,0.118083,-0.008383,-0.985809,0.167663,0.114416,0.680618,-0.042708,-20.470537,-26.986086,-9.594446,,,,,,,5
1508446982.500160,3.116578,1.360865,-1.309287,2.012487,-0.540512,-0.975981,0.005212,-0.978045,0.208328,0.108267,0.383670,-0.072921,-20.493320,-27.257408,-8.740860,,,,,,,5
1508446982.520172,3.033755,1.322873,-1.235881,1.758794,-0.558914,-0.808794,0.026411,-0.969424,0.243966,-0.040220,-0.267301,0.073081,-19.868744,-28.253029,-6.807671,,,,,,,5
1508446982.540184,3.004213,1.286639,-1.218107,1.787549,-0.592897,-0.194225,0.038393,-0.959898,0.277708,-0.230486,-0.221407,0.031817,-19.637747,-28.620056,-5.881873,,,,,,,5
1508446982.560195,3.026481,1.253819,-1.250820,1.640527,-0.389936,0.406295,0.035801,-0.950182,0.309633,-0.304279,-0.011442,-0.085131,-19.607090,-28.817909,-4.943195,,,,,,,5
1508446982.580210,3.041151,1.220862,-1.275738,1.743333,-0.473948,0.092981,0.034377,-0.939395,0.341108,-0.169006,0.145496,-0.146741,-19.928175,-28.838367,-3.249845,,,,,,,5
1508446982.600220,3.040632,1.182690,-1.286181,2.015062,-0.560491,-0.007057,0.038142,-0.925627,0.376509,0.144994,-0.028200,-0.076186,-19.965839,-28.926971,-1.985151,,,,,,,5
1508446982.620220,3.040328,1.141861,-1.301239,2.043654,-0.782000,0.145270,0.042044,-0.909409,0.413772,0.368463,-0.097366,-0.275695,-19.993608,-28.961586,-0.909630,,,,,,,5
1508446982.640245,3.031916,1.104038,-1.312801,1.812098,-1.124723,-0.076238,0.049255,-0.893032,0.447290,0.292771,-0.164173,-0.809900,-20.070932,-28.906929,0.944557,,,,,,,5
1508446982.660255,2.992013,1.070466,-1.309529,1.525700,-2.267604,-0.369077,0.071488,-0.877424,0.474358,0.170089,-0.317110,-0.900811,-19.889223,-28.933830,2.568548,,,,,,,5
1508446982.680266,2.938399,1.047230,-1.303965,0.847348,-2.381645,-0.274677,0.100893,-0.866041,0.489686,-0.127078,-0.612184,-0.576982,-19.612299,-28.977356,3.875021,,,,,,,5
1508446982.700274,2.895402,1.038674,-1.302429,0.164222,-1.876996,-0.062726,0.123650,-0.861732,0.492065,-0.394066,-0.577400,-0.415710,-19.191891,-29.004128,5.456851,,,,,,,5
1508446982.720291,2.862752,1.041416,-1.299293,-0.334413,-1.248855,-0.051460,0.138996,-0.863120,0.485493,-0.589466,-0.607354,-0.469608,-18.975655,-29.024172,6.071834,,,,,,,5
1508446982.740304,2.837437,1.054229,-1.288875,-0.912914,-0.593060,-0.042963,0.147916,-0.869519,0.471229,-0.726026,-0.814761,-0.902641,-18.848957,-29.086203,6.168864,,,,,,,5
1508446982.760317,2.809385,1.080184,-1.271617,-1.681681,-0.794254,0.026136,0.153662,-0.882045,0.445405,-0.816534,-0.924794,-1.106720,-18.742666,-29.256649,5.666215,,,,,,,5
1508446982.780301,2.787467,1.130141,-1.251128,-3.015109,0.201597,0.558902,0.147909,-0.904472,0.400066,0.003779,-0.587852,-0.787822,-18.772278,-29.366707,4.954122,,,,,,,5
1508446982.800339,2.742302,1.189431,-1.192452,-3.151084,0.375087,-0.277914,0.144693,-0.928158,0.342910,0.487036,-0.332280,-0.501907,-19.002951,-29.416561,3.591506,,,,,,,5
1508446982.820352,2.655588,1.235748,-1.109299,-2.391245,-0.989334,-0.273738,0.153588,-0.944394,0.290740,0.670203,-0.344409,0.367875,-18.811951,-29.744066,0.863848,,,,,,,5
1508446982.840346,2.552863,1.269065,-1.041695,-1.809856,-2.418185,0.113289,0.165022,-0.954823,0.247144,0.475466,-0.867686,0.596820,-18.704542,-29.823627,0.190862,,,,,,,5
1508446982.860375,2.479695,1.312406,-1.011065,-2.215053,-1.812910,1.496699,0.157050,-0.966802,0.201565,0.011209,-0.758295,0.559238,-18.880035,-29.713421,0.045515,,,,,,,5
1508446982.880388,2.445073,1.379083,-0.996215,-2.983314,-0.488998,2.057802,0.122242,-0.981679,0.146160,-0.367847,-0.560160,0.241627,-20.128820,-28.864788,-0.999871,,,,,,,5
1508446982.900399,2.310135,1.451885,-0.857489,-3.485322,0.370854,1.496383,0.087659,-0.992938,0.079934,-0.478558,-0.404126,0.013465,-21.200098,-27.965521,-2.798332,,,,,,,5
1508446982.920411,1.789503,1.506397,-0.322596,-3.248476,0.751841,1.117447,0.062822,-0.997927,0.013963,-0.119768,-0.413618,0.240767,-21.739975,-27.340839,-4.381455,,,,,,,5
1508446982.940411,0.735104,1.506230,0.751109,-3.102337,0.916785,0.916477,0.043272,-0.997916,-0.047860,0.251283,-0.358910,0.575371,-22.342773,-26.296497,-6.974236,,,,,,,5
1508446982.960436,0.263900,1.458888,1.242268,-2.966691,0.874477,0.686515,0.029130,-0.993745,-0.107808,0.393645,-0.113204,0.624471,-22.629295,-25.428337,-8.981085,,,,,,,5
1508446982.980449,0.113004,1.406837,1.409393,-2.631155,0.647969,0.671013,0.018406,-0.986589,-0.162184,0.197445,0.274019,0.525206,-22.754829,-24.788441,-10.348722,,,,,,,5
1508446983.000443,0.026060,1.359094,1.510158,-2.352432,0.626017,0.814908,0.005475,-0.977675,-0.210053,0.055453,0.407377,0.625824,-22.895042,-24.125292,-11.538306,,,,,,,5
1508446983.020473,-0.025827,1.313148,1.579552,-2.271600,0.890408,0.790221,-0.006580,-0.966992,-0.254722,0.016529,0.440762,0.687141,-23.202330,-22.680332,-13.660147,,,,,,,5
1508446983.040483,-0.048584,1.269652,1.625467,-2.032997,1.177686,0.650797,-0.014405,-0.954998,-0.296263,-0.009826,0.507259,0.735487,-23.253881,-21.936790,-14.743790,,,,,,,5
1508446983.060472,-0.046867,1.233187,1.652127,-1.663268,1.465633,0.418758,-0.015518,-0.943549,-0.330868,-0.008530,0.548667,0.787060,-22.257862,-21.421654,-12.562199,,,,,,,5
1508446983.080508,-0.024756,1.203627,1.665093,-1.358570,1.862026,0.202236,-0.008886,-0.933347,-0.358865,-0.010813,0.576307,0.823190,-22.065344,-20.991615,-13.586069,,,,,,,5
1508446983.100505,0.009450,1.180354,1.671157,-1.024118,2.004879,0.092242,0.003597,-0.924741,-0.380580,0.031911,0.667142,0.786464,-21.601337,-20.533669,-14.961925,,,,,,,5
1508446983.120533,0.039644,1.167134,1.677039,-0.402135,1.568027,0.119405,0.015567,-0.919629,-0.392481,0.096264,0.655407,0.746622,-20.896547,-20.138659,-16.427944,,,,,,,5
1508446983.140543,0.052161,1.169071,1.685887,0.366894,0.653304,0.219824,0.020386,-0.920388,-0.390475,0.183822,0.575493,0.629092,-20.536133,-20.040867,-16.992334,,,,,,,5
1508446983.160533,0.037407,1.185849,1.698798,1.124380,-0.617277,0.325202,0.014043,-0.926818,-0.375247,0.239832,0.533645,0.522037,-20.497797,-20.070303,-17.003876,,,,,,,5
1508446983.180568,-0.003385,1.219226,1.718528,1.969963,-1.304713,0.422165,-0.001166,-0.938833,-0.344371,0.289908,0.317602,0.197353,-21.035212,-20.474440,-15.824848,,,,,,,5
1508446983.200575,-0.072908,1.263697,1.750439,2.242963,-2.497512,0.520408,-0.022020,-0.953214,-0.301492,0.149416,-0.290072,-0.618872,-21.705044,-20.952934,-14.211760,,,,,,,5
1508446983.220590,-0.196109,1.286775,1.823077,0.364672,-2.290472,1.114094,-0.054602,-0.959936,-0.274847,-0.112879,-1.289896,-2.066675,-22.465004,-21.135313,-12.677959,,,,,,,5
1508446983.240604,-0.260237,1.273149,1.877560,-0.586587,0.419295,0.597198,-0.075462,-0.956029,-0.283397,-0.709435,-0.598231,-1.002980,-23.483793,-20.544121,-11.771118,,,,,,,5
1508446983.260603,-0.230911,1.269155,1.873641,0.037140,1.543272,-0.210268,-0.067993,-0.954850,-0.289203,-0.565842,0.073075,-0.376676,-23.424452,-20.355844,-12.208322,,,,,,,5
1508446983.280627,-0.198335,1.270332,1.867576,-0.126976,1.049097,0.013729,-0.058316,-0.955199,-0.290161,-0.409137,0.148513,-0.326446,-23.085011,-20.423340,-12.730988,,,,,,,5
1508446983.300615,-0.182846,1.266198,1.872190,0.035768,1.269020,0.043987,-0.054532,-0.953968,-0.294910,0.074582,-0.007534,0.160084,-22.677252,-20.351126,-13.552948,,,,,,,5
1508446983.320653,-0.121429,1.286589,1.840148,1.417750,1.099653,-1.091463,-0.033965,-0.959884,-0.278332,0.273741,-0.082795,0.661968,-22.106791,-20.661930,-14.017235,,,,,,,5
1508446983.340662,-0.038975,1.321039,1.757204,1.569167,0.174761,-0.954626,-0.009631,-0.968972,-0.246981,0.318988,-0.448432,0.844927,-21.599850,-21.401690,-13.693893,,,,,,,5
1508446983.360678,0.008005,1.338856,1.750992,0.342216,3.148771,0.228944,0.001840,-0.973222,-0.229859,0.204886,-0.589674,0.705124,-20.953150,-22.137346,-13.528191,,,,,,,5
1508446983.380679,0.127569,1.330287,1.697440,-0.969773,2.850636,-0.164376,0.030304,-0.971217,-0.236262,0.388809,0.055888,0.166865,-19.722048,-22.345385,-14.961056,,,,,,,5
1508446983.400676,0.157006,1.323083,1.699318,0.280768,0.660580,0.159455,0.038338,-0.969476,-0.242172,0.382209,0.234200,0.333603,-19.120605,-22.196651,-15.931715,,,,,,,5
1508446983.420691,0.115734,1.355425,1.726824,2.254874,-1.376109,0.704453,0.024678,-0.976897,-0.212281,0.097773,0.612456,0.806412,-19.262930,-22.363636,-15.521461,,,,,,,5
1508446983.440725,0.067604,1.416237,1.747047,3.325789,-1.095003,0.141737,0.010399,-0.988080,-0.153593,-0.009011,0.653088,0.966779,-19.823940,-22.749247,-14.198301,,,,,,,5
1508446983.460735,0.253428,1.482023,1.557415,3.335624,0.399809,-1.038917,0.022228,-0.996062,-0.085825,-0.139508,0.059569,0.939539,-20.046570,-23.643427,-12.297640,,,,,,,5
1508446983.480748,1.014774,1.517513,0.803845,2.489130,0.008690,-0.915237,0.045236,-0.998581,-0.028110,-0.375543,-0.590683,-0.279690,-19.255976,-25.076654,-10.605532,,,,,,,5
1508446983.500760,1.782221,1.519748,0.023857,1.774211,-0.443142,0.093221,0.049890,-0.998697,0.010708,-0.233820,-0.542105,-0.238140,-19.098373,-25.694597,-9.335322,,,,,,,5
1508446983.520770,2.342966,1.509512,-0.537336,1.534996,0.125126,0.337633,0.043877,-0.998123,0.042731,-0.048958,-0.083756,0.088586,-19.203350,-25.865078,-8.621931,,,,,,,5
1508446983.540784,2.655194,1.485722,-0.850502,1.721778,-0.107231,0.146280,0.039719,-0.996383,0.075116,0.082336,0.252182,0.080233,-19.369473,-26.051945,-7.630746,,,,,,,5
1508446983.560774,2.830943,1.449113,-1.030780,2.254169,-0.227470,0.170814,0.037104,-0.992606,0.115574,0.163457,0.358984,0.007855,-19.438595,-26.211802,-6.869563,,,,,,,5
1508446983.580807,2.920071,1.401370,-1.129076,2.553910,-0.518449,-0.059046,0.037048,-0.985682,0.164497,0.188187,0.377970,-0.031608,-19.550201,-26.440456,-5.549808,,,,,,,5
1508446983.600820,2.929141,1.352339,-1.149102,2.287396,-0.481577,-0.491375,0.045698,-0.976233,0.211851,0.166689,0.212500,-0.033583,-19.491062,-26.815390,-3.625163,,,,,,,5
1508446983.620816,2.908154,1.310075,-1.133567,1.852093,-0.222754,-0.667261,0.059630,-0.966204,0.250786,0.031343,-0.098859,-0.093880,-19.277246,-27.084890,-2.627738,,,,,,,5
1508446983.640842,2.899310,1.276335,-1.128327,1.529885,-0.178824,-0.305745,0.069630,-0.956959,0.281748,-0.060384,-0.182415,-0.150919,-19.017181,-27.334831,-1.806188,,,,,,,5
1508446983.660857,2.914443,1.246647,-1.149016,1.536691,-0.277292,0.092451,0.071727,-0.947922,0.310321,-0.273967,-0.066147,-0.152377,-18.817120,-27.529049,-0.419526,,,,,,,5
1508446983.680869,2.936037,1.216196,-1.178673,1.589845,-0.350381,0.160978,0.070871,-0.937785,0.339906,-0.286065,-0.017949,-0.208680,-18.871002,-27.493584,0.310837,,,,,,,5
1508446983.700879,2.952362,1.190850,-1.202712,1.146797,-0.174811,0.175555,0.069762,-0.928684,0.364251,-0.237975,-0.013134,-0.239632,-18.934753,-27.431091,1.057802,,,,,,,5
1508446983.720865,2.967731,1.173861,-1.220442,0.799616,-0.042881,0.180242,0.066876,-0.922250,0.380765,-0.065426,-0.012503,-0.151868,-19.072321,-27.278883,2.053666,,,,,,,5
1508446983.740904,2.977463,1.154967,-1.236968,1.177919,-0.536146,0.139337,0.066003,-0.914782,0.398520,0.098075,0.046679,-0.132483,-19.159931,-27.171051,2.596086,,,,,,,5
1508446983.760906,2.969203,1.123788,-1.252170,1.888826,-1.304201,-0.053418,0.074150,-0.901744,0.425863,0.142952,0.161479,-0.237661,-19.176201,-27.110672,3.064837,,,,,,,5
1508446983.780931,2.944965,1.077321,-1.257813,2.448581,-1.593625,-0.406771,0.092541,-0.880692,0.464562,0.066379,-0.306533,-0.481117,-18.915434,-26.926521,5.410850,,,,,,,5
1508446983.800941,2.916222,1.033456,-1.260311,1.810583,-1.383788,-0.343735,0.114383,-0.859073,0.498909,0.084378,-0.475857,-0.573616,-18.597149,-26.825392,6.830293,,,,,,,5
1508446983.820932,2.901260,1.015606,-1.263507,0.347655,-0.598799,0.020638,0.125465,-0.849800,0.511956,0.048516,-0.740059,-0.537560,-18.247585,-26.693798,8.159368,,,,,,,5
1508446983.840940,2.894129,1.019990,-1.265361,-0.404219,-0.411291,0.060358,0.128198,-0.852103,0.507431,-0.179376,-0.559121,-0.480316,-18.172941,-26.641825,8.489161,,,,,,,5
1508446983.860976,2.877458,1.030205,-1.257064,-0.618931,-0.542447,-0.111873,0.134360,-0.857405,0.496794,-0.287024,-0.441729,-0.587920,-18.114128,-26.704002,8.419207,,,,,,,5
1508446983.880962,2.855418,1.044158,-1.249534,-0.852272,-0.976061,0.104146,0.141885,-0.864502,0.482188,-0.509133,-0.788513,-1.323665,-17.971146,-26.839283,8.294533,,,,,,,5
1508446983.901000,2.831540,1.071585,-1.242339,-1.719449,-0.657336,0.283559,0.146066,-0.877960,0.455906,-0.751870,-0.883453,-1.232991,-17.886841,-26.985126,7.998272,,,,,,,5
1508446983.921011,2.808045,1.119236,-1.213196,-2.921644,0.567134,-0.011855,0.142866,-0.899767,0.412320,-0.007246,-0.546567,-0.661359,-17.964802,-27.238522,6.887485,,,,,,,5
1508446983.941022,2.766407,1.172857,-1.154560,-2.642068,0.434166,-0.323747,0.142004,-0.921862,0.360563,0.448221,-0.203444,0.065416,-17.984285,-27.544611,5.474341,,,,,,,5
1508446983.961036,2.691052,1.210395,-1.085811,-2.021505,-1.039904,-0.405984,0.153562,-0.935756,0.317459,0.268603,-0.534185,0.530899,-17.734150,-27.990303,3.761838,,,,,,,5
1508446983.981043,2.607577,1.244838,-1.026303,-2.097983,-1.439263,0.211699,0.162988,-0.947344,0.275633,-0.071588,-0.887510,0.746035,-17.544050,-28.172960,3.255628,,,,,,,5
1508446984.001058,2.539344,1.298361,-0.973987,-3.096799,-0.342262,1.163619,0.152432,-0.963118,0.221737,-0.501507,-0.971009,0.600986,-17.651651,-28.184814,2.478662,,,,,,,5
1508446984.021072,2.452015,1.376734,-0.871245,-4.149803,1.029400,1.362524,0.122691,-0.981229,0.148784,-0.803722,-0.532870,0.005284,-18.536133,-27.722149,0.051772,,,,,,,5
1508446984.041060,2.221468,1.443852,-0.616417,-3.372594,0.983461,0.799267,0.100736,-0.991953,0.076686,-0.602002,-0.308095,0.005131,-19.019440,-27.324615,-1.932548,,,,,,,5
1508446984.061095,1.761837,1.482492,-0.135765,-3.135899,0.977386,0.617015,0.086585,-0.996104,0.016745,-0.323767,-0.332525,0.267144,-19.309008,-26.950422,-3.597978,,,,,,,5
1508446984.081108,0.998567,1.479412,0.654563,-3.541447,1.310600,0.453143,0.076720,-0.995827,-0.049416,0.210756,-0.288261,0.699395,-19.616035,-26.101898,-6.783108,,,,,,,5
1508446984.101120,0.543528,1.434568,1.136661,-3.308141,1.082052,0.446378,0.070234,-0.990735,-0.116236,0.300280,0.007459,0.551218,-21.109152,-26.592205,-9.684186,,,,,,,5
1508446984.121130,0.335683,1.386346,1.364991,-2.744280,0.801425,0.786215,0.060417,-0.983037,-0.173170,0.285576,0.159719,0.553297,-21.116766,-25.929287,-11.326055,,,,,,,5
1508446984.141129,0.195843,1.342664,1.523661,-2.417872,0.766109,1.064651,0.044009,-0.974090,-0.221835,0.057569,0.484283,0.656497,-21.428167,-24.375923,-13.898673,,,,,,,5
1508446984.161155,0.106640,1.302333,1.630768,-2.028993,0.712347,0.938987,0.028233,-0.964180,-0.263744,-0.039662,0.470253,0.679607,-21.640760,-23.532366,-14.980999,,,,,,,5
1508446984.181163,0.052984,1.268213,1.703018,-1.655180,0.866922,0.845298,0.015781,-0.954570,-0.297569,-0.069675,0.425319,0.690528,-21.801350,-22.754784,-15.919991,,,,,,,5
1508446984.201159,0.027603,1.238262,1.753268,-1.456973,1.288875,0.631110,0.009010,-0.945218,-0.326315,-0.032310,0.476682,0.730475,-21.868208,-21.397301,-17.619934,,,,,,,5
1508446984.221192,0.029596,1.211941,1.784772,-1.252436,1.743840,0.440423,0.010393,-0.936299,-0.351049,0.001326,0.477910,0.768545,-21.666418,-20.829765,-18.525990,,,,,,,5
1508446984.241190,0.043344,1.190231,1.810223,-0.992673,1.880677,0.421376,0.016095,-0.928455,-0.371096,0.111499,0.536197,0.827929,-21.165920,-20.173185,-19.788166,,,,,,,5
1508446984.261216,0.052301,1.176413,1.834842,-0.512218,1.340811,0.436631,0.020087,-0.923234,-0.383714,0.190301,0.575486,0.801072,-20.476616,-19.501240,-21.140839,,,,,,,5
1508446984.281226,0.049844,1.174891,1.857537,0.164243,0.692385,0.423624,0.019214,-0.922648,-0.385164,0.274365,0.602290,0.678331,-20.179886,-19.209587,-21.686150,,,,,,,5
1508446984.301239,0.040245,1.187360,1.875550,0.861027,0.160504,0.324628,0.015052,-0.927385,-0.373806,0.358468,0.560441,0.416134,-20.117222,-19.198978,-21.753658,,,,,,,5
1508446984.321252,0.023302,1.213702,1.887545,1.582420,-0.722910,0.257512,0.008145,-0.936916,-0.349459,0.290073,0.273388,-0.107924,-20.256628,-19.612127,-21.249908,,,,,,,5
1508446984.341261,-0.046660,1.245305,1.918374,1.351559,-2.580389,0.680100,-0.014915,-0.947494,-0.319426,0.114860,-0.532853,-1.094407,-20.766956,-20.024469,-20.353849,,,,,,,5
1508446984.361274,-0.116616,1.246658,1.963506,-0.417022,-0.169231,0.620476,-0.037057,-0.947925,-0.316329,-0.404242,-1.562359,-2.215775,-21.947063,-20.137613,-18.955948,,,,,,,5
1508446984.381289,-0.112624,1.243339,1.974221,-0.021351,0.724972,-0.006975,-0.036147,-0.946863,-0.319599,-0.574128,-0.488958,-0.887768,-22.070536,-19.789112,-19.178314,,,,,,,5
1508446984.401289,-0.105681,1.243486,1.979261,0.007088,0.583365,0.210360,-0.033913,-0.946910,-0.319704,-0.314369,0.260326,-0.307936,-21.840612,-19.781414,-19.447582,,,,,,,5
1508446984.421310,-0.111617,1.234707,2.001814,-0.629344,1.155160,0.491955,-0.036734,-0.944052,-0.327745,-0.106561,0.387579,-0.581694,-21.760101,-19.641071,-19.678703,,,,,,,5
1508446984.441324,-0.080577,1.232927,2.024661,0.496565,3.322863,0.211149,-0.026681,-0.943463,-0.330402,-0.087318,0.575970,0.523654,-21.057310,-19.208464,-20.836260,,,,,,,5
1508446984.461316,-0.016650,1.265708,2.000295,2.310996,0.537972,-0.876926,-0.005001,-0.953820,-0.300336,0.074230,0.251061,0.834058,-19.824780,-19.779282,-21.500774,,,,,,,5
1508446984.481345,0.029067,1.323997,1.921122,2.984150,-1.935618,-0.912635,0.007100,-0.969699,-0.244198,0.094478,-0.008755,0.987454,-19.637888,-20.506538,-20.984764,,,,,,,5
1508446984.501359,0.079919,1.365383,1.864321,1.095101,1.040510,-0.438325,0.016284,-0.978977,-0.203320,0.243283,-0.825039,0.913693,-19.857422,-22.584921,-18.496735,,,,,,,5
1508446984.521370,0.183318,1.343298,1.809576,-1.414034,3.256826,-0.734194,0.041114,-0.974234,-0.221762,0.368767,-0.967188,-0.521296,-19.193151,-22.747217,-18.992424,,,,,,,5
1508446984.541363,0.232986,1.328336,1.814464,-0.226994,1.867310,0.359528,0.055433,-0.970750,-0.233605,0.327486,-0.191573,0.522759,-18.025040,-22.542812,-20.333336,,,,,,,5
1508446984.561388,0.168701,1.346637,1.883256,1.253979,-0.945657,1.215032,0.037322,-0.974981,-0.219131,-0.015075,0.484091,1.001312,-17.399605,-22.296005,-21.134499,,,,,,,5
1508446984.581406,0.042186,1.387323,1.975276,2.291947,-1.676045,0.906819,0.007694,-0.983216,-0.182284,-0.064030,0.720048,1.141253,-18.282673,-22.439547,-20.217215,,,,,,,5
1508446984.601419,0.060925,1.443531,1.961162,3.074518,1.335454,-0.552726,0.007728,-0.991913,-0.126687,-0.250175,0.912521,1.194009,-19.041824,-22.866127,-19.001955,,,,,,,5
1508446984.621432,0.458618,1.506448,1.587523,3.553602,0.214597,-0.811546,0.028468,-0.997930,-0.057659,-0.296794,-0.125834,-0.383824,-18.026337,-24.894100,-17.374123,,,,,,,5
1508446984.641443,1.896357,1.538826,0.099888,3.478979,-3.290555,0.242478,0.030286,-0.999489,0.010224,-0.133801,-0.676109,-0.632385,-18.318922,-26.177137,-15.023304,,,,,,,5
1508446984.661453,2.861134,1.487242,-0.906184,3.448819,-1.097255,0.422765,0.023101,-0.996511,0.080196,0.046296,-0.476359,0.071964,-19.066031,-26.814411,-12.806205,,,,,,,5
1508446984.681468,2.997245,1.437675,-1.053512,1.988059,-0.245490,0.137712,0.019093,-0.991152,0.131348,0.107983,-0.060453,0.379821,-19.574228,-27.528858,-10.273102,,,,,,,5
1508446984.701460,3.026162,1.409635,-1.072522,1.242596,0.938500,-0.120955,0.018481,-0.987042,0.159397,0.072675,0.210980,0.329433,-19.589626,-27.764944,-9.585388,,,,,,,5
1508446984.721490,3.047023,1.384331,-1.071166,1.286301,1.023278,-0.173768,0.017506,-0.982666,0.184559,0.102703,0.348358,-0.065540,-19.341673,-28.046371,-9.264231,,,,,,,5
1508446984.741503,3.042161,1.354684,-1.056200,1.626726,0.119479,-0.355842,0.021286,-0.976738,0.213375,0.066391,0.188271,-0.399502,-19.000994,-28.459072,-8.693024,,,,,,,5
1508446984.761488,3.022521,1.315949,-1.044678,2.014605,-0.665627,-0.309579,0.029947,-0.967702,0.250313,-0.050027,-0.012248,-0.235115,-18.861135,-28.780760,-7.902569,,,,,,,5
1508446984.781526,3.013037,1.277324,-1.051559,1.828918,-0.830245,-0.021626,0.037086,-0.957245,0.286891,-0.086967,-0.026855,-0.087733,-18.801476,-29.087738,-6.850776,,,,,,,5
1508446984.801540,3.020079,1.243724,-1.074403,1.682591,-0.669002,0.193431,0.038943,-0.946987,0.318903,-0.103839,-0.065968,0.061407,-18.944185,-29.401758,-4.814506,,,,,,,5
1508446984.821551,3.028233,1.209331,-1.097252,1.807259,-0.712765,0.152902,0.040003,-0.935380,0.351376,-0.045435,-0.051101,-0.135204,-19.073725,-29.456749,-3.875343,,,,,,,5
1508446984.841564,3.027052,1.172173,-1.114426,1.903311,-0.934010,0.087513,0.044362,-0.921596,0.385606,0.028804,-0.022328,-0.252046,-19.177467,-29.504515,-2.869427,,,,,,,5
1508446984.861557,3.018401,1.136142,-1.128567,1.743781,-1.183686,0.055130,0.051745,-0.907016,0.417906,0.257963,0.050479,-0.399336,-19.304579,-29.553850,-0.654488,,,,,,,5
1508446984.881586,2.998725,1.102877,-1.137252,1.686727,-1.541127,-0.095740,0.064219,-0.892509,0.446435,0.227743,0.091544,-0.461999,-19.305084,-29.548843,0.839537,,,,,,,5
1508446984.901592,2.963822,1.065661,-1.141847,1.943909,-2.167508,-0.247414,0.085576,-0.875109,0.476299,0.009441,-0.101270,-0.562222,-19.207874,-29.548737,2.110654,,,,,,,5
1508446984.921587,2.921546,1.029232,-1.143627,1.588387,-2.068826,-0.334389,0.112516,-0.856904,0.503047,-0.154050,-0.427398,-0.496639,-18.821171,-29.524033,4.540927,,,,,,,5
1508446984.941623,2.891024,1.007230,-1.143257,0.761444,-1.104420,-0.210587,0.132459,-0.845355,0.517522,-0.272870,-0.494290,-0.390493,-18.462015,-29.501186,5.946361,,,,,,,5
1508446984.961620,2.881865,0.998977,-1.140032,0.183736,0.116514,-0.208044,0.138980,-0.840918,0.523013,-0.640475,-0.563852,-0.188143,-18.304852,-29.498499,6.426209,,,,,,,5
1508446984.981647,2.881952,0.998844,-1.130990,-0.174135,0.363151,-0.211876,0.138963,-0.840846,0.523133,-0.771516,-0.774907,-0.660065,-18.174059,-29.587816,6.386693,,,,,,,5
1508446985.001658,2.877772,1.007906,-1.126268,-0.769635,-0.167617,0.115008,0.139156,-0.845716,0.515169,-0.790905,-0.945177,-1.135836,-18.137909,-29.659731,6.151570,,,,,,,5
1508446985.021648,2.870956,1.041736,-1.115798,-2.291595,0.406086,0.200835,0.134935,-0.863282,0.486351,-0.825151,-0.955840,-1.189888,-18.169687,-29.691433,5.899710,,,,,,,5
1508446985.041683,2.869841,1.100053,-1.084390,-3.361930,1.914182,-0.079434,0.121741,-0.891231,0.436905,-0.121344,-0.588932,-0.968841,-18.389420,-29.947128,3.394691,,,,,,,5
1508446985.061690,2.848811,1.169352,-1.022907,-3.735899,1.141195,-0.327997,0.112776,-0.920498,0.374120,0.507951,-0.292362,-0.260762,-18.374041,-30.122581,1.244883,,,,,,,5
1508446985.081705,2.792840,1.230056,-0.962671,-2.799869,-0.532096,0.083067,0.114200,-0.942508,0.314067,0.508756,-0.513868,0.397100,-18.217812,-30.216269,-1.270311,,,,,,,5
1508446985.101720,2.717608,1.274544,-0.921503,-2.155006,-2.608601,0.281668,0.120102,-0.956437,0.266089,0.485306,-0.826278,0.618295,-18.387856,-30.015604,-2.734117,,,,,,,5
1508446985.121718,2.617499,1.324429,-0.875861,-2.845078,-2.441379,0.908556,0.122046,-0.969805,0.211148,0.408563,-1.130445,0.669620,-18.675484,-29.817184,-2.947357,,,,,,,5
1508446985.141742,2.517386,1.401273,-0.793164,-4.160122,-0.031424,1.484068,0.098605,-0.985665,0.136898,0.183851,-1.087806,0.569981,-19.195396,-29.419769,-3.541038,,,,,,,5
1508446985.161755,2.167433,1.479244,-0.423550,-4.304255,1.022208,0.797980,0.075629,-0.995812,0.051368,-0.395545,-0.360557,0.070794,-20.296913,-27.990063,-7.149594,,,,,,,5
1508446985.181767,1.213500,1.504169,0.542615,-3.453950,0.151307,0.682959,0.062373,-0.997781,-0.023285,-0.216106,-0.213645,0.245301,-20.487001,-27.275642,-9.102044,,,,,,,5
1508446985.201778,0.475874,1.471488,1.282028,-3.223249,-0.051883,0.940249,0.045420,-0.995073,-0.088129,-0.076944,-0.122114,0.507609,-20.739729,-26.549402,-10.560208,,,,,,,5
1508446985.221769,0.163278,1.416625,1.597930,-3.130925,0.101510,1.073155,0.024962,-0.988139,-0.151519,0.229158,0.231883,0.647995,-21.475977,-24.803518,-13.041974,,,,,,,5
1508446985.241803,0.020930,1.361413,1.744564,-2.670889,0.073544,1.043924,0.004350,-0.978159,-0.207811,0.215102,0.309260,0.669573,-21.965887,-23.515936,-14.526723,,,,,,,5
1508446985.261791,-0.056679,1.312705,1.827331,-2.305646,0.243103,0.982103,-0.014459,-0.966879,-0.254826,0.097604,0.409582,0.705662,-22.194723,-22.900209,-15.149250,,,,,,,5
1508446985.281816,-0.099088,1.266875,1.883608,-2.186612,0.819746,0.941997,-0.029605,-0.954170,-0.297796,-0.089597,0.378090,0.743902,-22.677177,-21.135141,-16.899010,,,,,,,5
1508446985.301839,-0.111783,1.221717,1.922922,-2.174986,1.484266,0.800984,-0.038154,-0.939688,-0.339898,-0.117715,0.362601,0.772043,-22.706675,-20.252808,-17.909658,,,,,,,5
1508446985.321849,-0.095690,1.178113,1.946622,-2.066307,2.155842,0.566016,-0.036562,-0.923886,-0.380918,-0.124785,0.411999,0.806562,-22.532314,-19.379374,-19.059380,,,,,,,5
1508446985.341864,-0.059831,1.139034,1.961574,-1.829873,2.613006,0.401149,-0.025023,-0.908230,-0.417723,-0.033678,0.507458,0.898268,-21.482645,-17.778057,-21.655525,,,,,,,5
1508446985.361874,-0.021262,1.107374,1.974968,-1.365400,2.358629,0.334517,-0.009504,-0.894528,-0.446911,0.073499,0.570874,0.930279,-21.232145,-17.534969,-22.096291,,,,,,,5
1508446985.381886,0.003126,1.089506,1.989375,-0.577107,1.566807,0.343619,0.001447,-0.886398,-0.462921,0.190478,0.601212,0.840240,-19.754719,-16.340275,-24.274918,,,,,,,5
1508446985.401899,0.008668,1.090298,2.003298,0.441454,0.359341,0.309589,0.004006,-0.886765,-0.462203,0.338447,0.578400,0.561660,-19.081877,-15.974423,-25.044456,,,,,,,5
1508446985.421889,-0.018937,1.114354,2.018630,1.640029,-1.324873,0.371446,-0.008346,-0.897626,-0.440679,0.471603,0.476850,0.245427,-19.182026,-16.164497,-24.845201,,,,,,,5
1508446985.441921,-0.082822,1.158050,2.041085,2.473300,-2.611788,0.374157,-0.033184,-0.916023,-0.399752,0.500042,0.190254,-0.110304,-20.028030,-16.875698,-23.677288,,,,,,,5
1508446985.461931,-0.183107,1.204124,2.086090,2.018256,-2.848479,0.668350,-0.065280,-0.933526,-0.352517,0.187441,-0.601203,-1.112021,-21.771978,-18.031021,-21.151558,,,,,,,5
1508446985.481929,-0.258169,1.217621,2.134078,0.317992,-0.669060,0.576108,-0.088307,-0.938279,-0.334416,-0.396313,-1.171035,-1.497936,-22.865959,-18.238052,-19.774897,,,,,,,5
1508446985.501956,-0.264859,1.218784,2.144071,0.099228,0.513223,-0.090269,-0.090256,-0.938681,-0.332764,-0.611526,-0.824060,-0.960632,-23.050846,-18.170380,-19.621952,,,,,,,5
1508446985.521971,-0.242559,1.224714,2.144257,0.395545,1.494114,0.056659,-0.081475,-0.940709,-0.329285,-0.565376,0.059453,-0.268722,-22.657997,-18.287075,-19.968052,,,,,,,5
1508446985.541982,-0.226678,1.226617,2.166391,-0.017547,2.114061,0.471098,-0.075833,-0.941353,-0.328792,-0.274783,0.085274,-0.433293,-22.215786,-18.330549,-20.419964,,,,,,,5
1508446985.561980,-0.196142,1.229493,2.193370,0.582948,2.974479,0.238203,-0.065231,-0.942319,-0.328297,-0.135208,0.070463,-0.085567,-21.674339,-18.184429,-21.120476,,,,,,,5
1508446985.581987,-0.138316,1.263036,2.184664,2.261121,2.058500,-0.793152,-0.041766,-0.953015,-0.300031,-0.032972,-0.327534,0.894712,-19.891071,-18.726301,-22.365063,,,,,,,5
1508446985.602018,-0.056105,1.312039,2.131815,1.998660,1.318934,-0.885316,-0.014348,-0.966709,-0.255476,-0.148219,-0.465969,1.026030,-19.004034,-19.815538,-22.197212,,,,,,,5
1508446985.622026,0.018308,1.320685,2.085558,-0.565178,2.056672,-0.529002,0.004531,-0.968885,-0.247470,-0.002410,-0.481234,0.555926,-18.299252,-20.702068,-21.979239,,,,,,,5
1508446985.642045,0.090474,1.294525,2.070278,-1.390672,2.818675,0.041852,0.024645,-0.962079,-0.271654,0.487059,0.112439,0.381960,-16.491346,-20.538321,-23.510382,,,,,,,5
,,,,,,,,,,,,,,,,42.293332,-71.264203,60.291946,-1.000000,-1.000000,1508446985.631317,5
1508446985.662055,0.065988,1.284723,2.127271,0.185469,0.546100,1.120017,0.018607,-0.959359,-0.281573,0.485177,0.208779,0.518130,-15.746070,-20.046085,-24.428282,,,,,,,5
1508446985.682048,-0.047100,1.319859,2.218973,2.624068,-2.165273,1.098701,-0.011691,-0.968680,-0.248036,0.354709,0.717185,0.791173,-16.128016,-19.933453,-24.270758,,,,,,,5
1508446985.702080,-0.162362,1.387595,2.292214,3.751266,-1.649367,-0.055370,-0.029449,-0.983266,-0.179782,0.176345,0.645405,0.989261,-17.804613,-21.286503,-21.826717,,,,,,,5
1508446985.722091,-0.153552,1.470029,2.271745,3.640409,-0.133560,-1.022996,-0.015386,-0.994927,-0.099414,0.124990,0.055444,0.530795,-17.986340,-23.047226,-19.795000,,,,,,,5
1508446985.742101,0.060767,1.532557,2.050223,2.679685,-0.866806,-0.629008,0.002322,-0.999269,-0.038160,-0.002947,-0.491255,-0.334979,-20.676317,-28.279453,-11.968088,,,,,,,5
1508446985.762115,2.959058,1.559937,-0.885860,2.486084,-2.351778,0.299923,0.001971,-0.999941,0.010679,-0.001178,-0.453932,-0.244444,-20.753222,-29.165104,-9.443152,,,,,,,5
1508446985.782118,-3.008674,1.502355,-1.249586,3.049415,-2.168630,0.810465,-0.009063,-0.997659,0.067785,0.006622,-0.140281,0.236048,-20.904549,-29.247507,-8.834922,,,,,,,5
1508446985.802137,-2.963672,1.441948,-1.316255,2.681464,-0.319540,0.632078,-0.022741,-0.991710,0.126464,-0.126063,0.201549,0.464463,-21.984003,-29.380447,-4.895485,,,,,,,5
1508446985.822130,-2.986211,1.403072,-1.275732,1.551620,1.461096,-0.401250,-0.025835,-0.985967,0.164928,-0.286543,0.411382,0.350987,-22.253498,-29.406046,-3.246386,,,,,,,5
1508446985.842163,-3.060695,1.378401,-1.166962,1.372573,1.404215,-0.896813,-0.015452,-0.981549,0.190586,-0.342306,0.261395,-0.070926,-21.897774,-29.680944,-3.162531,,,,,,,5
1508446985.862172,-3.121544,1.345610,-1.096291,1.857116,-0.081984,-0.519147,-0.004476,-0.974752,0.223243,-0.175974,-0.055857,-0.337288,-21.334955,-30.123932,-2.800222,,,,,,,5
1508446985.882188,3.113796,1.304864,-1.056100,2.076662,-0.618457,-0.484733,0.007304,-0.964848,0.262707,-0.011958,-0.130260,-0.093075,-20.950348,-30.496826,-1.224413,,,,,,,5
1508446985.902198,3.084176,1.264411,-1.042047,1.958975,-0.875154,-0.088749,0.017308,-0.953430,0.301117,0.021144,-0.139527,0.079696,-20.759764,-30.651287,-0.058948,,,,,,,5
1508446985.922191,3.089370,1.226948,-1.067519,1.890907,-0.981391,0.506866,0.017597,-0.941464,0.336653,0.092068,-0.037509,0.042329,-20.714140,-30.661968,1.113891,,,,,,,5
1508446985.942204,3.101077,1.186411,-1.103802,2.197736,-1.224945,0.473013,0.015189,-0.927029,0.374681,0.261957,0.085339,-0.271059,-21.080105,-30.226713,3.528126,,,,,,,5
1508446985.962234,3.080616,1.139072,-1.116713,2.397043,-1.868585,-0.065654,0.025499,-0.908246,0.417660,0.321104,0.076245,-0.405666,-21.146938,-29.971523,4.998756,,,,,,,5
1508446985.982244,3.039929,1.095438,-1.112692,2.000258,-1.654730,-0.336018,0.046447,-0.889129,0.455294,0.373185,0.046096,-0.402865,-20.958656,-29.782295,6.649994,,,,,,,5
1508446986.002244,3.008647,1.058275,-1.107352,1.773241,-1.238140,-0.325865,0.065001,-0.871511,0.486049,-0.025817,-0.206416,-0.433162,-20.291180,-29.503428,9.396193,,,,,,,5
1508446986.022270,2.979219,1.022725,-1.106196,1.720094,-1.617165,-0.269094,0.084232,-0.853531,0.514188,-0.160313,-0.323517,-0.588255,-20.183743,-29.451355,9.782988,,,,,,,5
1508446986.042280,2.941782,0.994451,-1.106911,1.108984,-1.950190,-0.205182,0.108166,-0.838460,0.534121,-0.345135,-0.523799,-0.799120,-19.572289,-29.126244,11.792377,,,,,,,5
1508446986.062295,2.911280,0.982421,-1.106540,0.309833,-1.147328,-0.097244,0.126699,-0.831843,0.540355,-0.540426,-0.542333,-0.337261,-18.721910,-28.856430,13.684637,,,,,,,5
1508446986.082307,2.898355,0.980795,-1.105228,-0.009032,-0.344890,-0.037514,0.133998,-0.830940,0.539985,-0.598246,-0.470025,-0.124778,-18.461884,-28.840605,14.065951,,,,,,,5
1508446986.102288,2.891243,0.980823,-1.103706,0.016502,-0.321516,-0.033026,0.137829,-0.830956,0.538995,-0.628170,-0.492729,-0.413247,-18.380531,-28.856272,14.140169,,,,,,,5
1508446986.122330,2.884605,0.982477,-1.104878,-0.256303,-0.396261,0.120118,0.141054,-0.831874,0.536739,-0.522951,-0.698689,-0.932521,-18.258686,-28.856981,14.295725,,,,,,,5
