timestamp(unix),attitude_roll(radians),attitude_pitch(radians),attitude_yaw(radians),rotation_rate_x(radians/s),rotation_rate_y(radians/s),rotation_rate_z(radians/s),gravity_x(G),gravity_y(G),gravity_z(G),user_acc_x(G),user_acc_y(G),user_acc_z(G),magnetic_field_x(microteslas),magnetic_field_y(microteslas),magnetic_field_z(microteslas),latitude(degree),longitude(degree),altitude(meter),speed(m/s),course(degree),timestamp(unix),User Mark
1508446738.250551,-0.047264,0.054740,0.009928,0.060384,-0.063456,-0.000130,-0.047175,-0.054713,-0.997387,0.014995,0.005366,-0.035557,-9.177189,-12.052594,-43.071774,,,,,,,5
,,,,,,,,,,,,,,,,42.293374,-71.264163,60.209827,-1.000000,-1.000000,1508446726.644757,5
1508446738.270587,-0.050331,0.055768,0.009956,0.041274,-0.178175,0.000690,-0.050231,-0.055739,-0.997181,0.012283,0.000579,-0.003445,-9.284159,-12.101208,-43.035202,,,,,,,5
,,,,,,,,,,,,,,,,42.293374,-71.264163,60.209827,-1.000000,-1.000000,1508446717.644757,5
1508446738.290578,-0.053092,0.056337,0.010101,0.019933,-0.111210,0.008018,-0.052983,-0.056307,-0.997007,-0.000881,-0.002118,0.025495,-9.359520,-12.117386,-43.014324,,,,,,,5
1508446738.310610,-0.054005,0.056683,0.010201,0.013505,-0.009245,0.001654,-0.053892,-0.056652,-0.996938,-0.011935,-0.000415,0.009557,-9.480239,-12.145216,-42.980022,,,,,,,5
,,,,,,,,,,,,,,,,42.293374,-71.264163,60.209827,-1.000000,-1.000000,1508446726.644757,5
1508446738.330621,-0.053441,0.056742,0.010238,-0.008893,0.068316,0.001527,-0.053330,-0.056711,-0.996965,-0.008499,-0.002874,0.002397,-9.484180,-12.153162,-42.976910,,,,,,,5
1508446738.350623,-0.051504,0.056437,0.010311,-0.016375,0.107645,0.006819,-0.051400,-0.056407,-0.997084,-0.002632,0.000499,0.006834,-9.440626,-12.147894,-42.987988,,,,,,,5
1508446738.370638,-0.049395,0.055978,0.010548,-0.013188,0.086431,0.016412,-0.049298,-0.055949,-0.997216,0.008359,0.008005,-0.000770,-9.305504,-12.118547,-43.025715,,,,,,,5
1508446738.390655,-0.048334,0.055841,0.010893,-0.002516,0.034375,0.017526,-0.048239,-0.055812,-0.997275,0.012610,0.008647,-0.001779,-9.261039,-12.109711,-43.037796,,,,,,,5
1508446738.410641,-0.048234,0.055928,0.011142,0.009230,-0.008150,0.010137,-0.048140,-0.055899,-0.997275,0.012221,0.007208,0.000388,-9.242352,-12.105982,-43.042862,,,,,,,5
,,,,,,,,,,,,,,,,42.293512,-71.264280,60.209827,-1.000000,-1.000000,1508446738.409321,5
1508446738.430667,-0.048281,0.055935,0.011381,0.013494,-0.033631,0.014412,-0.048187,-0.055906,-0.997273,0.007431,0.005933,0.003239,-9.249075,-12.110659,-43.040100,,,,,,,5
,,,,,,,,,,,,,,,,42.293542,-71.264384,60.209827,-1.000000,-1.000000,1508446738.424422,5
1508446738.450687,-0.048736,0.055988,0.011805,0.013477,-0.034658,0.023994,-0.048640,-0.055959,-0.997248,0.005320,0.004125,0.003061,-9.266649,-12.111618,-43.036049,,,,,,,5
1508446738.470686,-0.049246,0.056208,0.012298,0.014540,-0.035716,0.025067,-0.049148,-0.056179,-0.997210,0.002960,0.000225,0.004428,-9.282742,-12.108059,-43.033585,,,,,,,5
1508446738.490694,-0.049886,0.056705,0.012705,0.022003,-0.021943,0.015556,-0.049785,-0.056674,-0.997151,0.001399,-0.004117,0.006214,-9.324905,-12.121986,-43.020546,,,,,,,5
,,,,,,,,,,,,,,,,42.293570,-71.264481,60.209827,-1.000000,-1.000000,1508446738.481405,5
1508446738.510706,-0.049989,0.057172,0.012962,0.023061,0.002479,0.012389,-0.049887,-0.057140,-0.997119,0.001059,0.000408,0.005832,-9.336688,-12.145096,-43.011467,,,,,,,5
1508446738.530712,-0.049561,0.057678,0.013521,0.044282,0.040821,0.043471,-0.049458,-0.057646,-0.997111,0.001713,0.003889,0.005656,-9.335329,-12.153764,-43.009315,,,,,,,5
,,,,,,,,,,,,,,,,42.293596,-71.264570,60.209827,-1.000000,-1.000000,1508446738.494967,5
1508446738.550717,-0.048504,0.058401,0.015006,0.060202,0.028178,0.075535,-0.048403,-0.058368,-0.997121,0.008837,0.004306,0.004705,-9.302004,-12.182693,-43.008354,,,,,,,5
1508446738.570739,-0.048399,0.059141,0.016417,0.033609,-0.027045,0.076339,-0.048296,-0.059107,-0.997083,0.014391,0.000238,0.000669,-9.292885,-12.204319,-43.004192,,,,,,,5
1508446738.590737,-0.049634,0.059629,0.018288,0.029339,-0.107674,0.106055,-0.049526,-0.059594,-0.996993,0.020854,-0.000450,0.001388,-9.315508,-12.212616,-42.996941,,,,,,,5
1508446738.610758,-0.051867,0.060607,0.019929,0.033709,-0.153529,0.056014,-0.051748,-0.060570,-0.996822,0.012777,-0.015373,0.000057,-9.458553,-12.226963,-42.961620,,,,,,,5
1508446738.630787,-0.055318,0.061670,0.019987,0.009383,-0.199472,-0.023013,-0.055185,-0.061631,-0.996572,0.003717,-0.020659,0.009924,-9.588348,-12.291083,-42.914528,,,,,,,5
,,,,,,,,,,,,,,,,42.293392,-71.264150,59.884586,-1.000000,-1.000000,1508446738.619140,5
1508446738.650796,-0.057710,0.061541,0.019443,-0.052467,-0.036875,-0.014882,-0.057568,-0.061502,-0.996445,-0.009891,-0.009589,0.018281,-9.664554,-12.295197,-42.896248,,,,,,,5
1508446738.670784,-0.057759,0.061671,0.018921,-0.091921,0.056665,-0.004490,-0.057617,-0.061632,-0.996435,-0.015197,-0.037871,0.021383,-9.719591,-12.279123,-42.888416,,,,,,,5
1508446738.690820,-0.052563,0.059572,0.018608,-0.134658,0.381731,-0.013115,-0.052446,-0.059537,-0.996847,-0.033751,-0.009433,0.034216,-9.648485,-12.263407,-42.908962,,,,,,,5
1508446738.710800,-0.044776,0.056170,0.018841,-0.166685,0.335221,0.048341,-0.044691,-0.056140,-0.997422,0.001859,-0.014493,-0.012588,-9.408104,-12.177875,-42.986633,,,,,,,5
1508446738.730837,-0.039964,0.053635,0.020058,-0.085705,0.171624,0.060598,-0.039896,-0.053609,-0.997765,0.018808,0.005681,0.008049,-9.007869,-11.966007,-43.131618,,,,,,,5
1508446738.750853,-0.036984,0.052048,0.020871,-0.081396,0.147114,0.039320,-0.036925,-0.052025,-0.997963,0.012664,0.006599,-0.001396,-8.883781,-11.889244,-43.178558,,,,,,,5
1508446738.770863,-0.034243,0.050376,0.021368,-0.057909,0.083300,0.021365,-0.034193,-0.050355,-0.998146,0.011717,0.008546,-0.012474,-8.825911,-11.851147,-43.200893,,,,,,,5
1508446738.790865,-0.034290,0.049797,0.021732,-0.011007,-0.029326,0.022732,-0.034241,-0.049777,-0.998173,0.009781,0.006686,0.006932,-8.739467,-11.769132,-43.240868,,,,,,,5
1508446738.810886,-0.034700,0.049513,0.022388,0.000690,-0.060079,0.039841,-0.034650,-0.049493,-0.998173,0.012510,0.007593,-0.011699,-8.760271,-11.760736,-43.238949,,,,,,,5
1508446738.830870,-0.036708,0.049728,0.023206,0.013476,-0.096186,0.045243,-0.036654,-0.049707,-0.998091,0.005526,0.008356,0.000334,-8.817081,-11.749557,-43.230438,,,,,,,5
1508446738.850882,-0.038447,0.049672,0.023770,0.007121,-0.068658,0.017528,-0.038390,-0.049651,-0.998029,-0.004976,0.010604,0.004636,-8.930522,-11.744751,-43.208450,,,,,,,5
1508446738.870915,-0.041904,0.050031,0.023987,0.053107,-0.338648,-0.020627,-0.041840,-0.050010,-0.997872,0.013794,0.049949,-0.032997,-8.978559,-11.745368,-43.198330,,,,,,,5
1508446738.890908,-0.050978,0.051957,0.022493,0.150131,-0.398402,-0.080562,-0.050887,-0.051934,-0.997353,-0.010789,0.029396,0.015893,-9.184968,-11.783933,-43.144402,,,,,,,5
1508446738.910933,-0.056401,0.054156,0.021898,0.074322,-0.199480,-0.016088,-0.056288,-0.054130,-0.996946,-0.022798,-0.006631,0.014158,-9.657734,-11.937380,-42.998730,,,,,,,5
1508446738.930932,-0.059008,0.054874,0.021140,0.024319,-0.141164,-0.055852,-0.058885,-0.054846,-0.996757,0.016099,-0.001947,-0.025658,-9.776929,-11.982845,-42.959129,,,,,,,5
1508446738.950952,-0.064558,0.056494,0.019745,0.133125,-0.432410,-0.088181,-0.064411,-0.056464,-0.996325,0.029422,0.004524,-0.025678,-9.843289,-12.002066,-42.938602,,,,,,,5
1508446738.970949,-0.074705,0.060415,0.018202,0.207696,-0.549267,-0.077007,-0.074499,-0.060378,-0.995392,-0.003824,-0.018495,0.004013,-10.330914,-12.204208,-42.766727,,,,,,,5
1508446738.990986,-0.084570,0.064446,0.016333,0.160829,-0.384708,-0.113470,-0.084293,-0.064401,-0.994358,0.005024,-0.004752,0.049289,-10.671463,-12.352963,-42.640213,,,,,,,5
1508446739.010983,-0.090682,0.065674,0.015650,0.075411,-0.282314,-0.008688,-0.090362,-0.065627,-0.993744,-0.014099,0.031966,0.033356,-10.900360,-12.473217,-42.547207,,,,,,,5
1508446739.031004,-0.096841,0.067458,0.014476,0.102183,-0.261409,-0.102149,-0.096469,-0.067407,-0.993051,0.025028,-0.061423,0.003686,-11.162079,-12.514513,-42.467144,,,,,,,5
1508446739.051019,-0.097211,0.069710,0.013718,0.060311,0.122426,-0.012766,-0.096822,-0.069654,-0.992861,-0.017008,-0.007403,0.026202,-11.367479,-12.639640,-42.375504,,,,,,,5
1508446739.071022,-0.098586,0.070317,0.013154,0.060554,-0.230320,-0.028963,-0.098183,-0.070259,-0.992685,0.025780,-0.034187,-0.039175,-11.331053,-12.693768,-42.369083,,,,,,,5
1508446739.091018,-0.107130,0.072175,0.014230,0.122180,-0.336224,0.074746,-0.106647,-0.072112,-0.991679,-0.005750,0.019912,0.047007,-11.483337,-12.738560,-42.314606,,,,,,,5
1508446739.111053,-0.110016,0.071448,0.015425,-0.122852,-0.047150,0.071877,-0.109514,-0.071387,-0.991418,0.008424,0.028693,0.018427,-11.863483,-12.799606,-42.191128,,,,,,,5
1508446739.131044,-0.108509,0.068695,0.015759,-0.024773,0.063983,-0.031574,-0.108041,-0.068641,-0.991774,0.011636,0.025505,-0.017656,-11.890667,-12.689220,-42.216812,,,,,,,5
1508446739.151077,-0.105855,0.070350,0.013304,0.063723,0.240924,-0.152090,-0.105396,-0.070292,-0.991943,-0.063489,-0.028585,0.035720,-11.769603,-12.695841,-42.248737,,,,,,,5
1508446739.171085,-0.098210,0.073214,0.011629,-0.182572,0.651406,-0.066505,-0.097789,-0.073148,-0.992515,-0.078129,-0.136569,0.021034,-11.709015,-12.718239,-42.258831,,,,,,,5
1508446739.191097,-0.084320,0.067514,0.010867,-0.304126,0.624222,0.040011,-0.084028,-0.067463,-0.994177,0.052686,0.055240,-0.055673,-11.055681,-12.746149,-42.426071,,,,,,,5
1508446739.211104,-0.081431,0.065388,0.012310,0.064617,-0.224607,0.088197,-0.081167,-0.065341,-0.994556,0.085714,0.130649,-0.013485,-10.615609,-12.501483,-42.610859,,,,,,,5
1508446739.231109,-0.089635,0.070018,0.014840,0.273255,-0.278737,0.133533,-0.089296,-0.069961,-0.993545,-0.028181,0.047424,0.111816,-10.869892,-12.588169,-42.521137,,,,,,,5
1508446739.251115,-0.082864,0.070291,0.018616,-0.177733,0.726662,0.189131,-0.082565,-0.070233,-0.994108,-0.098877,-0.022815,0.099989,-11.056511,-12.728745,-42.431076,,,,,,,5
1508446739.271144,-0.059992,0.061685,0.019344,-0.492835,1.284930,-0.006831,-0.059842,-0.061645,-0.996303,-0.037738,-0.049164,-0.046300,-10.099547,-12.404663,-42.764317,,,,,,,5
1508446739.291135,-0.036358,0.053803,0.018934,-0.313894,1.046986,0.025344,-0.036297,-0.053777,-0.997893,0.001873,0.032430,-0.018129,-9.032334,-12.029110,-43.108944,,,,,,,5
1508446739.311148,-0.021336,0.049786,0.020150,-0.145572,0.628573,0.092431,-0.021308,-0.049765,-0.998534,-0.038735,0.001517,0.034697,-8.446043,-11.853353,-43.276161,,,,,,,5
1508446739.331177,-0.009130,0.047501,0.020542,-0.104929,0.633492,-0.013704,-0.009120,-0.047483,-0.998830,-0.020833,-0.073748,0.013555,-8.171120,-11.776726,-43.349800,,,,,,,5
1508446739.351186,0.005736,0.044864,0.020038,-0.181661,0.787558,-0.017416,0.005730,-0.044849,-0.998977,-0.025536,-0.066021,-0.028977,-7.166037,-11.602221,-43.574078,,,,,,,5
1508446739.371197,0.020285,0.040086,0.021391,-0.241431,0.635056,0.108680,0.020267,-0.040076,-0.998991,0.006360,0.025580,-0.015825,-6.656589,-11.459278,-43.692543,,,,,,,5
1508446739.391207,0.027425,0.037119,0.024113,-0.079413,0.188884,0.135234,0.027402,-0.037110,-0.998935,0.043292,0.052445,0.030246,-9.067963,-14.040682,-42.185932,,,,,,,5
1508446739.411219,0.027438,0.038482,0.027013,0.120794,-0.016116,0.173998,0.027415,-0.038473,-0.998883,-0.008112,-0.013086,-0.013598,-9.057942,-14.027788,-42.192379,,,,,,,5
1508446739.431210,0.027601,0.040141,0.030632,0.036662,0.046578,0.165898,0.027576,-0.040130,-0.998814,0.000119,-0.044022,-0.026623,-9.088356,-14.061516,-42.174610,,,,,,,5
1508446739.451235,0.031631,0.039556,0.033671,-0.077380,0.310061,0.155573,0.031601,-0.039545,-0.998718,0.008728,-0.013143,0.005340,-9.033972,-14.045391,-42.191662,,,,,,,5
1508446739.471252,0.037572,0.037720,0.036459,-0.081506,0.269554,0.111886,0.037537,-0.037711,-0.998583,0.011337,-0.001458,0.025118,-8.863768,-13.965744,-42.254154,,,,,,,5
1508446739.491235,0.041917,0.037298,0.038444,-0.009049,0.167527,0.110277,0.041876,-0.037290,-0.998427,0.016214,-0.000339,-0.004183,-8.670007,-13.891621,-42.318741,,,,,,,5
1508446739.511261,0.041762,0.037514,0.040879,0.013425,-0.102276,0.121971,0.041721,-0.037506,-0.998425,0.000180,0.026489,-0.008548,-8.608641,-13.864315,-42.340218,,,,,,,5
1508446739.531285,0.037811,0.038559,0.043473,0.073106,-0.202176,0.119194,0.037774,-0.038549,-0.998542,-0.036324,0.018301,0.005760,-8.638758,-13.861897,-42.334877,,,,,,,5
1508446739.551297,0.036809,0.039607,0.045378,0.013389,0.058048,0.096538,0.036772,-0.039597,-0.998539,-0.049376,-0.000641,0.012760,-8.902054,-13.899785,-42.267853,,,,,,,5
1508446739.571309,0.038237,0.039301,0.048051,-0.018596,0.075129,0.116517,0.038198,-0.039291,-0.998497,0.033487,0.000228,-0.006004,-8.884305,-13.871058,-42.281021,,,,,,,5
1508446739.591308,0.037246,0.040298,0.047595,0.117110,-0.034158,-0.128401,0.037207,-0.040287,-0.998495,0.042963,-0.042385,-0.081522,-8.893964,-13.862255,-42.281879,,,,,,,5
1508446739.611314,0.014099,0.044967,0.046598,0.334987,-1.728336,-0.026733,0.014084,-0.044952,-0.998890,0.179046,0.010070,-0.199978,-9.171291,-13.980146,-42.183701,,,,,,,5
1508446739.631343,-0.009928,0.050969,0.047557,0.230977,-0.689961,0.093510,-0.009915,-0.050947,-0.998652,-0.064350,-0.085436,0.142329,-10.743916,-14.312162,-41.698349,,,,,,,5
1508446739.651352,-0.010857,0.054167,0.049259,-0.116608,0.426585,0.054219,-0.010841,-0.054140,-0.998474,-0.078606,-0.008726,-0.017044,-11.038183,-14.498079,-41.557026,,,,,,,5
1508446739.671347,0.001168,0.050217,0.050336,-0.241288,0.421552,0.114941,0.001166,-0.050195,-0.998739,-0.019157,0.009393,0.040716,-10.664631,-14.406287,-41.686287,,,,,,,5
1508446739.691377,0.007206,0.048344,0.052098,-0.040950,0.201433,0.083422,0.007198,-0.048325,-0.998806,0.003544,0.038743,0.045910,-10.465584,-14.294688,-41.775059,,,,,,,5
1508446739.711385,0.006189,0.045106,0.051856,-0.007449,-0.284586,-0.065733,0.006183,-0.045091,-0.998964,0.013730,0.018846,-0.005660,-10.218699,-14.063293,-41.914482,,,,,,,5
1508446739.731381,0.002643,0.045278,0.048619,0.020322,-0.052358,-0.182450,0.002640,-0.045262,-0.998972,-0.035340,-0.029872,-0.011069,-10.364009,-14.079965,-41.873184,,,,,,,5
1508446739.751406,0.002577,0.046268,0.046119,-0.023590,0.112680,-0.079407,0.002575,-0.046252,-0.998926,0.000218,-0.012311,0.009699,-10.384308,-14.174695,-41.836182,,,,,,,5
1508446739.771418,0.002941,0.046768,0.045467,0.053057,-0.048643,-0.024595,0.002938,-0.046751,-0.998902,0.054786,-0.072893,-0.035750,-10.324906,-14.180303,-41.848984,,,,,,,5
1508446739.791409,0.004506,0.053080,0.043605,0.054294,0.085838,-0.151190,0.004500,-0.053055,-0.998581,0.046068,-0.110382,-0.023574,-10.347829,-14.217258,-41.830776,,,,,,,5
1508446739.811423,0.008557,0.050811,0.036997,-0.160404,-0.158902,-0.299017,0.008546,-0.050789,-0.998673,-0.061433,0.189506,0.051224,-9.981753,-14.477110,-41.830605,,,,,,,5
1508446739.831451,0.005218,0.050712,0.034682,0.072296,0.141212,-0.110539,0.005212,-0.050690,-0.998701,-0.038644,0.079560,0.036268,-10.102908,-14.450941,-41.810566,,,,,,,5
1508446739.851437,0.017575,0.047028,0.026232,-0.418249,0.560066,-0.403882,0.017555,-0.047011,-0.998740,-0.147102,-0.139345,-0.085763,-9.800362,-14.512223,-41.861324,,,,,,,5
1508446739.871474,0.021699,0.042835,0.024927,-0.011036,0.136513,0.051676,0.021678,-0.042822,-0.998848,0.131856,0.123251,0.127418,-9.315970,-14.253714,-42.060268,,,,,,,5
1508446739.891485,0.027451,0.045156,0.025678,0.145379,0.344646,0.050995,0.027420,-0.045141,-0.998604,-0.042282,-0.029612,-0.027534,-9.290931,-14.248986,-42.067410,,,,,,,5
1508446739.911494,0.034257,0.047247,0.029430,0.040626,0.373109,0.275877,0.034212,-0.047229,-0.998298,-0.050371,-0.001904,-0.042779,-8.940208,-14.384346,-42.097332,,,,,,,5
1508446739.931508,0.039933,0.047963,0.036423,0.034177,0.197063,0.360871,0.039877,-0.047945,-0.998054,-0.001898,0.033129,-0.002938,-8.683004,-14.353944,-42.161495,,,,,,,5
1508446739.951507,0.040441,0.050481,0.041987,0.154847,-0.009593,0.217970,0.040379,-0.050460,-0.997909,-0.011006,0.027526,-0.042038,-8.680965,-14.352606,-42.162369,,,,,,,5
1508446739.971528,0.036352,0.053709,0.044695,0.176559,-0.472092,0.111325,0.036292,-0.053683,-0.997898,0.049295,0.025378,-0.186504,-8.744165,-14.440237,-42.119366,,,,,,,5
1508446739.991541,0.032307,0.056321,0.046681,0.117652,0.160087,0.128353,0.032250,-0.056291,-0.997893,-0.037377,0.047441,0.225249,-9.007282,-14.524834,-42.034748,,,,,,,5
1508446740.011535,0.050214,0.056649,0.048429,-0.042392,1.103245,0.048954,0.050112,-0.056619,-0.997137,-0.060488,-0.017661,0.026541,-8.824267,-14.599540,-42.047684,,,,,,,5
1508446740.031562,0.067490,0.055950,0.047623,-0.007814,0.600233,-0.097011,0.067334,-0.055921,-0.996162,-0.019619,-0.113345,-0.023308,-7.957832,-14.563192,-42.232784,,,,,,,5
1508446740.051573,0.068907,0.057708,0.043685,0.167401,-0.079105,-0.224887,0.068738,-0.057676,-0.995966,-0.054715,-0.048281,0.014033,-7.540376,-14.632832,-42.285282,,,,,,,5
1508446740.071563,0.061086,0.061764,0.042411,0.194745,-0.489154,0.085934,0.060932,-0.061725,-0.996232,0.020092,0.015460,0.045044,-7.749536,-14.821054,-42.181786,,,,,,,5
1508446740.091595,0.052702,0.065029,0.044642,0.164866,-0.267200,0.060301,0.052567,-0.064983,-0.996501,0.118667,0.056332,0.039912,-8.088604,-14.911174,-42.086262,,,,,,,5
1508446740.111607,0.054601,0.067040,0.043802,0.046599,0.294436,-0.054178,0.054451,-0.066990,-0.996267,-0.037529,0.023639,0.015722,-8.219498,-15.051498,-42.010880,,,,,,,5
1508446740.131618,0.065399,0.067449,0.042999,0.028272,0.637687,-0.023192,0.065204,-0.067398,-0.995593,0.033597,-0.057953,-0.031842,-7.825968,-15.081998,-42.075047,,,,,,,5
1508446740.151629,0.076264,0.068017,0.043224,0.024003,0.427579,0.042628,0.076014,-0.067965,-0.994788,0.050863,-0.057493,-0.044214,-7.435246,-15.102613,-42.138462,,,,,,,5
1508446740.171633,0.078410,0.069174,0.044172,0.078577,-0.104689,0.039482,0.078142,-0.069119,-0.994543,0.093931,0.028103,-0.002771,-7.132852,-15.133048,-42.179798,,,,,,,5
1508446740.191651,0.071294,0.070897,0.043255,0.077893,-0.415341,-0.089593,0.071055,-0.070837,-0.994954,0.025686,0.026617,0.041280,-7.284729,-15.188172,-42.133999,,,,,,,5
1508446740.211636,0.066225,0.070938,0.040927,-0.030794,-0.186944,-0.107353,0.066010,-0.070878,-0.995298,0.014953,-0.001296,-0.015932,-7.564895,-15.254504,-42.060600,,,,,,,5
1508446740.231673,0.061858,0.069900,0.039197,-0.042484,-0.267638,-0.096863,0.061668,-0.069843,-0.995650,0.049935,0.003864,-0.017610,-7.745964,-15.235144,-42.034657,,,,,,,5
1508446740.251678,0.056593,0.069182,0.036563,-0.015797,-0.252931,-0.140286,0.056428,-0.069127,-0.996011,-0.024537,-0.002986,0.009301,-7.894907,-15.224600,-42.010757,,,,,,,5
1508446740.271694,0.052292,0.068608,0.035011,-0.038371,-0.200489,-0.032894,0.052145,-0.068554,-0.996284,-0.024557,0.001690,-0.008508,-8.064855,-15.229342,-41.976746,,,,,,,5
1508446740.291707,0.050873,0.067205,0.035722,-0.105728,0.070727,0.048740,0.050736,-0.067154,-0.996452,0.044921,0.025284,0.024681,-8.222513,-15.178270,-41.964657,,,,,,,5
1508446740.311717,0.057289,0.063430,0.036515,-0.257083,0.480779,0.023312,0.057143,-0.063388,-0.996352,0.067323,0.023883,-0.020067,-8.211363,-15.154071,-41.975582,,,,,,,5
1508446740.331728,0.068395,0.056761,0.037288,-0.290050,0.375653,0.029348,0.068232,-0.056731,-0.996055,0.077780,0.008910,-0.055062,-7.656717,-14.832520,-42.194706,,,,,,,5
1508446740.351741,0.069612,0.052012,0.038400,-0.235519,-0.120447,0.040071,0.069462,-0.051988,-0.996229,0.094356,-0.042570,-0.034121,-7.412076,-14.545473,-42.338070,,,,,,,5
1508446740.371734,0.067846,0.051019,0.039098,-0.240742,-0.258570,0.030339,0.067706,-0.050997,-0.996401,-0.026050,-0.098081,0.032061,-7.410128,-14.550312,-42.336746,,,,,,,5
1508446740.391761,0.066899,0.046336,0.041001,-0.226162,0.085926,0.118029,0.066778,-0.046320,-0.996692,-0.129690,-0.074972,0.134906,-7.599309,-14.338333,-42.375519,,,,,,,5
1508446740.411774,0.064195,0.043469,0.043661,-0.096045,-0.261612,0.093287,0.064090,-0.043455,-0.996998,-0.129230,0.032545,-0.018307,-7.664173,-14.106385,-42.441635,,,,,,,5
1508446740.431762,0.052876,0.043928,0.044941,0.090545,-0.722822,0.076377,0.052800,-0.043914,-0.997639,-0.031621,-0.002442,0.095234,-8.063560,-14.072207,-42.378933,,,,,,,5
1508446740.451794,0.042538,0.046445,0.046329,0.088240,-0.305390,0.057509,0.042479,-0.046428,-0.998018,-0.042098,0.010128,0.095064,-8.510395,-14.139935,-42.268871,,,,,,,5
1508446740.471807,0.041377,0.046803,0.046686,-0.019393,0.073728,0.002605,0.041320,-0.046786,-0.998050,-0.059982,0.018892,0.033618,-8.746772,-14.194500,-42.202274,,,,,,,5
1508446740.491817,0.045110,0.045870,0.046829,-0.039703,0.203373,0.011053,0.045047,-0.045854,-0.997932,-0.054492,0.024538,0.005516,-8.617127,-14.158670,-42.240963,,,,,,,5
1508446740.511813,0.047496,0.046566,0.046879,0.078582,0.071517,-0.007235,0.047427,-0.046549,-0.997790,-0.028140,0.020517,0.003862,-8.511086,-14.150606,-42.265160,,,,,,,5
1508446740.531832,0.048754,0.048217,0.046361,0.065835,0.071465,-0.024376,0.048678,-0.048198,-0.997651,0.009366,-0.008076,-0.025497,-8.433676,-14.237858,-42.251373,,,,,,,5
1508446740.551848,0.050918,0.048246,0.046171,-0.033258,0.124724,0.001464,0.050836,-0.048227,-0.997542,0.003790,-0.002096,-0.026979,-8.374125,-14.265591,-42.253860,,,,,,,5
1508446740.571835,0.053196,0.047390,0.046633,-0.035426,0.098272,0.031239,0.053111,-0.047372,-0.997464,-0.002376,0.013421,-0.004870,-8.272502,-14.234935,-42.284210,,,,,,,5
1508446740.591860,0.054101,0.047516,0.047392,0.029553,0.011154,0.039163,0.054013,-0.047498,-0.997410,0.005816,0.023862,0.011479,-8.202404,-14.208063,-42.306896,,,,,,,5
1508446740.611884,0.054060,0.047784,0.047934,0.055159,-0.055828,0.026547,0.053972,-0.047766,-0.997399,0.010512,0.011816,0.005960,-8.217709,-14.229334,-42.296776,,,,,,,5
1508446740.631893,0.053369,0.048530,0.048712,0.014596,0.013383,0.065660,0.053281,-0.048511,-0.997401,0.011401,-0.017544,-0.000295,-8.237991,-14.235093,-42.290890,,,,,,,5
1508446740.651907,0.056149,0.046362,0.049862,-0.195259,0.196232,0.070454,0.056059,-0.046345,-0.997351,-0.072309,-0.002788,0.042563,-8.181833,-14.182796,-42.319355,,,,,,,5
1508446740.671918,0.057397,0.041102,0.053717,-0.289200,0.144765,0.224028,0.057317,-0.041091,-0.997510,-0.092046,-0.015733,0.146588,-8.150023,-13.948357,-42.403328,,,,,,,5
1508446740.691926,0.073970,0.033333,0.061401,-0.425342,1.169741,0.456858,0.073861,-0.033327,-0.996711,-0.141458,-0.199064,0.308037,-8.058918,-13.795155,-42.470806,,,,,,,5
1508446740.711940,0.095780,0.030897,0.067475,0.027828,0.925166,0.153768,0.095588,-0.030892,-0.994942,0.150155,0.020379,-0.049019,-6.840372,-13.302564,-42.840088,,,,,,,5
1508446740.731933,0.108921,0.033398,0.067418,0.130611,0.502652,-0.050134,0.108645,-0.033392,-0.993520,0.035780,-0.024027,-0.171855,-6.202621,-13.379478,-42.913158,,,,,,,5
1508446740.751961,0.115232,0.034201,0.066693,-0.024801,0.225662,0.005870,0.114910,-0.034195,-0.992787,-0.064144,-0.092606,-0.115138,-5.921721,-13.449627,-42.930904,,,,,,,5
1508446740.771970,0.116951,0.031532,0.068873,-0.202742,0.006329,0.141587,0.116627,-0.031526,-0.992675,-0.036030,-0.046461,-0.036316,-5.752758,-13.362687,-42.980999,,,,,,,5
1508446740.791961,0.114403,0.027802,0.073214,-0.191072,-0.183558,0.220331,0.114110,-0.027799,-0.993079,0.076091,0.039151,0.062018,-5.862204,-13.159084,-43.028999,,,,,,,5
1508446740.811993,0.110608,0.025919,0.078226,-0.075071,-0.153792,0.243670,0.110346,-0.025916,-0.993555,0.084357,0.038886,0.050944,-6.032663,-13.031480,-43.044273,,,,,,,5
1508446740.832007,0.107515,0.025625,0.083181,-0.044198,-0.162288,0.249243,0.107272,-0.025622,-0.993899,0.018567,0.026523,-0.029965,-6.181357,-12.959832,-43.044811,,,,,,,5
1508446740.852017,0.103541,0.024583,0.088670,-0.109183,-0.205695,0.281680,0.103325,-0.024581,-0.994344,-0.083183,-0.009553,-0.029216,-6.438173,-12.868130,-43.034672,,,,,,,5
1508446740.872004,0.098858,0.022593,0.095568,-0.141249,-0.229840,0.359124,0.098671,-0.022591,-0.994864,-0.085976,-0.005180,-0.006418,-6.626660,-12.771559,-43.034828,,,,,,,5
1508446740.892031,0.095605,0.021191,0.103039,-0.079561,-0.086467,0.356547,0.095438,-0.021190,-0.995210,-0.036585,0.000102,0.038026,-7.023846,-12.535682,-43.041191,,,,,,,5
1508446740.912050,0.096931,0.020567,0.109513,-0.059333,0.167172,0.285568,0.096759,-0.020566,-0.995095,-0.020633,-0.021991,0.010003,-7.099674,-12.430220,-43.059334,,,,,,,5
1508446740.932034,0.102211,0.019663,0.113639,-0.068752,0.309060,0.151440,0.102013,-0.019662,-0.994589,0.011054,-0.011695,0.005071,-7.050312,-12.385149,-43.080425,,,,,,,5
1508446740.952073,0.108666,0.018765,0.115584,-0.038797,0.318312,0.067580,0.108434,-0.018764,-0.993927,0.012630,0.010769,0.006958,-6.838076,-12.304226,-43.137787,,,,,,,5
1508446740.972084,0.114475,0.018648,0.116769,-0.001492,0.283192,0.055084,0.114206,-0.018647,-0.993282,0.052542,0.011414,-0.002644,-6.462549,-12.246764,-43.211967,,,,,,,5
1508446740.992093,0.119998,0.018487,0.117247,-0.020537,0.256431,-0.005784,0.119689,-0.018486,-0.992639,0.066865,0.020592,-0.018378,-6.462549,-12.246764,-43.211967,,,,,,,5
1508446741.012106,0.123204,0.017896,0.115109,-0.009502,0.089032,-0.179373,0.122873,-0.017895,-0.992261,0.050558,0.000072,-0.033679,-6.037474,-12.228296,-43.278629,,,,,,,5
1508446741.032119,0.123116,0.017252,0.110225,0.003499,-0.058941,-0.265622,0.122787,-0.017251,-0.992283,0.044998,0.023233,-0.019649,-6.007226,-12.231644,-43.281891,,,,,,,5
1508446741.052127,0.120080,0.016991,0.105101,0.022709,-0.203372,-0.249601,0.119775,-0.016990,-0.992656,0.052283,0.019386,-0.016118,-5.974960,-12.280822,-43.272430,,,,,,,5
1508446741.072140,0.116107,0.016659,0.100067,0.006758,-0.179955,-0.249687,0.115831,-0.016659,-0.993129,0.005034,-0.028233,-0.004612,-6.026743,-12.305758,-43.258160,,,,,,,5
1508446741.092132,0.113767,0.015899,0.096409,-0.030763,-0.075421,-0.133861,0.113507,-0.015898,-0.993410,-0.036069,-0.050081,0.020876,-6.176917,-12.358271,-43.221996,,,,,,,5
1508446741.112161,0.113819,0.015158,0.094614,-0.019168,0.035180,-0.098545,0.113560,-0.015157,-0.993415,-0.024968,-0.045389,0.018135,-6.196035,-12.348516,-43.222050,,,,,,,5
1508446741.132173,0.116067,0.014535,0.091620,-0.013770,0.174056,-0.180380,0.115795,-0.014535,-0.993167,-0.016124,-0.018943,0.020892,-6.089692,-12.348978,-43.237026,,,,,,,5
1508446741.152160,0.122162,0.013598,0.088033,-0.031968,0.363165,-0.179323,0.121847,-0.013597,-0.992456,-0.023351,0.016725,0.018289,-5.906204,-12.353672,-43.261131,,,,,,,5
1508446741.172194,0.129707,0.012388,0.084504,-0.044740,0.365285,-0.182621,0.129334,-0.012388,-0.991524,-0.023179,0.036008,-0.002678,-5.546975,-12.346734,-43.310635,,,,,,,5
1508446741.192207,0.136571,0.010854,0.081923,-0.059757,0.315635,-0.105056,0.136139,-0.010854,-0.990630,-0.028244,0.047978,-0.003953,-5.108748,-12.312328,-43.374290,,,,,,,5
1508446741.212217,0.140776,0.010383,0.080770,0.009419,0.139492,-0.036474,0.140304,-0.010383,-0.990054,0.023194,0.061729,-0.017301,-4.913128,-12.291677,-43.402737,,,,,,,5
1508446741.232206,0.141728,0.010836,0.080421,0.030732,-0.000642,-0.006592,0.141246,-0.010836,-0.989915,0.032933,0.064516,-0.020476,-4.799164,-12.304788,-43.411774,,,,,,,5
1508446741.252230,0.140841,0.011493,0.080103,0.033983,-0.065494,-0.020455,0.140367,-0.011493,-0.990033,0.052824,0.069614,-0.016330,-4.815301,-12.341009,-43.399704,,,,,,,5
1508446741.272251,0.137970,0.011900,0.078899,0.023515,-0.210179,-0.081342,0.137523,-0.011900,-0.990427,0.078389,0.041853,-0.042028,-4.898840,-12.372059,-43.381512,,,,,,,5
1508446741.292263,0.131411,0.011907,0.076382,0.018406,-0.401635,-0.149672,0.131024,-0.011907,-0.991308,0.072925,0.035772,-0.036295,-4.898840,-12.372059,-43.381512,,,,,,,5
1508446741.312273,0.121136,0.012143,0.072894,0.045169,-0.578107,-0.181527,0.120831,-0.012143,-0.992599,0.031376,-0.019763,-0.013245,-5.484476,-12.439622,-43.292015,,,,,,,5
1508446741.332284,0.107907,0.012765,0.068845,0.058048,-0.708855,-0.202814,0.107689,-0.012765,-0.994103,0.012047,-0.040229,-0.011253,-5.847832,-12.487362,-43.230667,,,,,,,5
1508446741.352293,0.093556,0.013640,0.064678,0.070819,-0.703542,-0.200576,0.093411,-0.013640,-0.995534,0.019001,-0.029619,-0.001719,-6.412016,-12.563489,-43.128490,,,,,,,5
1508446741.372306,0.081793,0.015159,0.060865,0.110025,-0.490930,-0.153242,0.081693,-0.015158,-0.996542,-0.059110,-0.026803,0.044440,-7.059549,-12.681642,-42.992565,,,,,,,5
1508446741.392295,0.074319,0.017478,0.059209,0.131019,-0.381028,-0.012440,0.074240,-0.017477,-0.997087,-0.065588,-0.058451,0.009218,-7.155362,-12.710744,-42.968124,,,,,,,5
1508446741.412301,0.065455,0.020202,0.059777,0.126675,-0.464697,0.059864,0.065395,-0.020201,-0.997655,-0.040905,-0.053346,0.015920,-7.643916,-12.883539,-42.832314,,,,,,,5
1508446741.432340,0.056456,0.022391,0.061598,0.102075,-0.446420,0.118236,0.056412,-0.022390,-0.998156,-0.058838,-0.044963,0.006595,-7.847516,-12.935174,-42.779900,,,,,,,5
1508446741.452331,0.046429,0.024160,0.064197,0.054160,-0.468678,0.125276,0.046399,-0.024157,-0.998631,-0.040753,-0.016568,0.032307,-8.492874,-13.038838,-42.624897,,,,,,,5
1508446741.472361,0.039031,0.024881,0.066183,0.027533,-0.287169,0.078345,0.039009,-0.024879,-0.998929,-0.036446,0.003883,0.040509,-8.817162,-13.058090,-42.553093,,,,,,,5
1508446741.492374,0.035075,0.025070,0.066730,-0.005410,-0.181154,0.011075,0.035057,-0.025067,-0.999071,-0.036873,0.016584,0.028383,-9.189992,-13.067812,-42.471146,,,,,,,5
1508446741.512359,0.033050,0.025202,0.066929,0.016877,-0.055790,0.016677,0.033034,-0.025200,-0.999137,-0.050612,-0.002922,0.021414,-9.304675,-13.066776,-42.446487,,,,,,,5
1508446741.532393,0.032916,0.025803,0.067161,0.030697,0.016412,0.008328,0.032899,-0.025800,-0.999126,-0.048127,-0.010683,0.007716,-9.328699,-13.079795,-42.437202,,,,,,,5
1508446741.552401,0.034059,0.026057,0.067551,0.001882,0.077054,0.029431,0.034041,-0.026054,-0.999081,-0.035796,-0.015587,-0.004215,-9.297061,-13.099872,-42.437954,,,,,,,5
1508446741.572417,0.034632,0.026573,0.068295,-0.003463,0.101509,0.035794,0.034613,-0.026570,-0.999048,-0.004919,-0.004024,-0.001502,-9.286657,-13.115056,-42.435543,,,,,,,5
1508446741.592427,0.036379,0.026634,0.068951,0.005075,0.075994,0.031586,0.036358,-0.026631,-0.998984,-0.005887,-0.001705,-0.001764,-9.231258,-13.109432,-42.449364,,,,,,,5
1508446741.612439,0.037956,0.027011,0.069527,0.001912,0.034548,0.026205,0.037933,-0.027008,-0.998915,0.006226,-0.003098,-0.004350,-9.171901,-13.106709,-42.463070,,,,,,,5
1508446741.632426,0.038234,0.026887,0.069868,-0.010824,0.005820,0.011172,0.038211,-0.026884,-0.998908,0.011930,-0.008563,-0.003182,-9.135272,-13.114467,-42.468571,,,,,,,5
1508446741.652462,0.038165,0.026501,0.070035,-0.022523,-0.009058,0.007870,0.038142,-0.026498,-0.998921,0.007054,-0.008536,0.000248,-9.134327,-13.100941,-42.472950,,,,,,,5
1508446741.672457,0.037880,0.026575,0.070292,-0.017202,-0.023910,0.014291,0.037858,-0.026571,-0.998930,-0.004075,-0.004144,0.013166,-9.147404,-13.095585,-42.471786,,,,,,,5
1508446741.692483,0.037319,0.026450,0.070611,-0.001231,-0.027101,0.015485,0.037297,-0.026447,-0.998954,-0.003133,-0.008206,0.017387,-9.167246,-13.085222,-42.470703,,,,,,,5
1508446741.712489,0.036609,0.027268,0.070861,0.003032,-0.008005,0.009147,0.036587,-0.027265,-0.998958,-0.004986,-0.008609,0.015026,-9.186966,-13.081952,-42.467449,,,,,,,5
1508446741.732506,0.036319,0.028484,0.070936,-0.000152,0.013209,-0.000446,0.036296,-0.028480,-0.998935,-0.002772,-0.006173,0.009998,-9.223611,-13.145030,-42.440018,,,,,,,5
1508446741.752517,0.036517,0.028685,0.070858,-0.001208,0.017440,-0.005775,0.036494,-0.028681,-0.998922,-0.003062,-0.003073,0.007131,-9.219852,-13.164695,-42.434738,,,,,,,5
1508446741.772526,0.036331,0.028855,0.070732,-0.001197,-0.000624,-0.006853,0.036308,-0.028851,-0.998924,-0.005134,-0.003116,0.000297,-9.227105,-13.182173,-42.427734,,,,,,,5
1508446741.792541,0.035748,0.029032,0.070614,-0.004386,-0.013368,-0.005824,0.035725,-0.029028,-0.998940,-0.003865,-0.001978,-0.002174,-9.236473,-13.187352,-42.424088,,,,,,,5
1508446741.812548,0.034872,0.029206,0.070531,-0.002253,-0.017620,-0.005810,0.034850,-0.029202,-0.998966,-0.005767,-0.001346,0.000293,-9.265279,-13.197044,-42.414791,,,,,,,5
1508446741.832560,0.033955,0.029491,0.070371,0.000948,-0.010206,-0.011101,0.033934,-0.029486,-0.998989,-0.007216,-0.004114,0.004055,-9.303895,-13.203530,-42.404320,,,,,,,5
1508446741.852573,0.032986,0.029882,0.070123,-0.002245,-0.001716,-0.013250,0.032965,-0.029878,-0.999010,-0.011283,-0.004790,0.005647,-9.339580,-13.222929,-42.390427,,,,,,,5
1508446741.872583,0.032205,0.030202,0.069912,-0.005447,0.004668,-0.010077,0.032185,-0.030198,-0.999026,-0.008961,-0.004989,0.008379,-9.378961,-13.240284,-42.376312,,,,,,,5
1508446741.892593,0.032420,0.030094,0.069778,-0.005462,0.013189,-0.003682,0.032399,-0.030090,-0.999022,-0.005986,-0.001450,0.008131,-9.386334,-13.246513,-42.372734,,,,,,,5
1508446741.912607,0.032566,0.030021,0.069755,-0.004407,0.016390,0.000588,0.032546,-0.030016,-0.999019,-0.002440,0.000247,0.005108,-9.381079,-13.244796,-42.374435,,,,,,,5
1508446741.932617,0.032938,0.029890,0.069784,-0.004405,0.013204,0.000585,0.032917,-0.029886,-0.999011,0.000255,-0.000281,0.002185,-9.365031,-13.237711,-42.380199,,,,,,,5
1508446741.952627,0.033121,0.029761,0.069820,-0.007599,0.005777,0.002683,0.033100,-0.029756,-0.999009,0.000775,-0.000166,0.002778,-9.356575,-13.235000,-42.382912,,,,,,,5
1508446741.972642,0.032978,0.029516,0.069869,0.004124,-0.015479,0.001699,0.032958,-0.029512,-0.999021,0.000703,0.001466,0.003095,-9.355511,-13.220852,-42.387562,,,,,,,5
1508446741.992651,0.033012,0.029875,0.069814,-0.002244,-0.037797,-0.002630,0.032991,-0.029871,-0.999009,0.010848,-0.007284,-0.004119,-9.356328,-13.225170,-42.386036,,,,,,,5
1508446742.012661,0.032314,0.030087,0.069869,-0.001191,-0.042016,0.005894,0.032294,-0.030082,-0.999026,0.000604,-0.007225,-0.001264,-9.364692,-13.234841,-42.381168,,,,,,,5
1508446742.032656,0.031148,0.030086,0.070008,-0.001196,-0.029273,0.004839,0.031129,-0.030082,-0.999063,-0.006516,0.002311,0.007104,-9.421958,-13.245416,-42.365173,,,,,,,5
1508446742.052684,0.030458,0.029971,0.070098,-0.005459,-0.021836,0.004809,0.030440,-0.029967,-0.999087,-0.007262,0.001952,0.006991,-9.447866,-13.241199,-42.360718,,,,,,,5
1508446742.072694,0.029929,0.029873,0.070154,-0.003287,-0.020745,0.000602,0.029911,-0.029868,-0.999106,-0.004490,0.000632,0.003135,-9.475759,-13.234108,-42.356705,,,,,,,5
1508446742.092707,0.029206,0.029986,0.070217,0.000969,-0.024986,0.003828,0.029189,-0.029982,-0.999124,-0.002928,-0.005083,0.003900,-9.512478,-13.228953,-42.350082,,,,,,,5
1508446742.112700,0.028585,0.030518,0.070330,0.007353,-0.029223,0.008137,0.028567,-0.030514,-0.999126,0.000333,-0.006718,0.005474,-9.534354,-13.237235,-42.342575,,,,,,,5
1508446742.132727,0.028026,0.030854,0.070510,0.006286,-0.027094,0.009194,0.028009,-0.030849,-0.999132,0.000800,-0.006627,0.005052,-9.563005,-13.266924,-42.326817,,,,,,,5
1508446742.152741,0.027451,0.031211,0.070577,0.003105,-0.020748,0.000655,0.027434,-0.031206,-0.999136,-0.002608,-0.003829,0.006003,-9.593369,-13.277779,-42.316544,,,,,,,5
1508446742.172731,0.026645,0.031415,0.070508,0.002048,-0.012273,-0.005736,0.026629,-0.031410,-0.999152,-0.010637,-0.001778,0.002844,-9.600954,-13.283217,-42.313114,,,,,,,5
1508446742.192761,0.025855,0.031546,0.070417,0.003108,-0.006960,-0.004658,0.025839,-0.031541,-0.999168,-0.011328,-0.001021,0.002586,-9.651692,-13.296138,-42.297512,,,,,,,5
1508446742.212774,0.025539,0.031626,0.070363,0.006297,0.000478,-0.003561,0.025523,-0.031621,-0.999174,-0.010295,0.000462,0.003630,-9.666683,-13.299043,-42.293175,,,,,,,5
1508446742.232780,0.025581,0.031935,0.070299,0.014809,0.007914,-0.002420,0.025565,-0.031929,-0.999163,-0.002356,-0.003212,0.005801,-9.678841,-13.313390,-42.285881,,,,,,,5
1508446742.252794,0.025871,0.032450,0.070222,0.009486,0.016408,-0.004587,0.025854,-0.032445,-0.999139,0.001871,-0.006038,0.001199,-9.673380,-13.327429,-42.282707,,,,,,,5
1508446742.272807,0.026472,0.032668,0.070100,0.000971,0.022776,-0.007847,0.026455,-0.032662,-0.999116,0.003941,-0.000739,0.001207,-9.647191,-13.348089,-42.282173,,,,,,,5
1508446742.292817,0.027039,0.032476,0.069885,-0.001151,0.018518,-0.011062,0.027021,-0.032471,-0.999107,0.005328,0.006286,0.005882,-9.626671,-13.350069,-42.286224,,,,,,,5
1508446742.312827,0.027469,0.032187,0.069685,0.005237,0.010024,-0.008886,0.027452,-0.032182,-0.999105,0.001433,0.004930,0.004583,-9.597724,-13.336358,-42.297131,,,,,,,5
1508446742.332827,0.027604,0.032311,0.069570,0.009493,0.000476,-0.004599,0.027586,-0.032305,-0.999097,0.001344,-0.001417,0.001096,-9.584748,-13.336423,-42.300053,,,,,,,5
1508446742.352768,0.027698,0.032552,0.069448,0.003114,-0.003784,-0.008914,0.027680,-0.032546,-0.999087,0.005829,-0.004945,0.001376,-9.583221,-13.343781,-42.298077,,,,,,,5
1508446742.372777,0.027616,0.032612,0.069204,0.002058,-0.004860,-0.013183,0.027597,-0.032607,-0.999087,0.000616,-0.000627,0.005267,-9.577276,-13.354801,-42.295948,,,,,,,5
1508446742.392772,0.027621,0.032669,0.068936,0.005252,-0.004861,-0.013156,0.027602,-0.032663,-0.999085,0.001450,0.002665,0.001466,-9.576163,-13.363175,-42.293552,,,,,,,5
1508446742.412785,0.027392,0.032677,0.068701,0.004179,-0.004846,-0.008906,0.027374,-0.032671,-0.999091,-0.004349,0.001330,0.003165,-9.575209,-13.365407,-42.293064,,,,,,,5
1508446742.432811,0.027071,0.032877,0.068613,0.012688,-0.013323,-0.001389,0.027053,-0.032871,-0.999093,-0.005263,-0.000027,0.003335,-9.589230,-13.369023,-42.288742,,,,,,,5
1508446742.452824,0.026823,0.032993,0.068553,0.000983,-0.015452,-0.004682,0.026806,-0.032987,-0.999096,0.001683,0.000775,-0.000980,-9.602652,-13.380229,-42.282150,,,,,,,5
1508446742.472834,0.026578,0.033053,0.068476,0.006298,-0.004824,-0.002500,0.026560,-0.033047,-0.999101,-0.002940,-0.000263,0.004365,-9.608272,-13.380486,-42.280796,,,,,,,5
1508446742.492845,0.026112,0.033424,0.068479,0.015875,-0.004819,0.000773,0.026094,-0.033418,-0.999101,-0.004610,0.000016,0.002580,-9.626147,-13.391918,-42.273113,,,,,,,5
1508446742.512858,0.025799,0.033439,0.068450,0.000972,-0.001636,-0.002541,0.025781,-0.033433,-0.999108,-0.005930,0.003434,0.000512,-9.639948,-13.402871,-42.266491,,,,,,,5
1508446742.532845,0.025576,0.033300,0.068448,0.000960,0.010060,0.000662,0.025559,-0.033294,-0.999119,-0.008179,0.002990,0.005100,-9.646174,-13.399705,-42.266075,,,,,,,5
1508446742.552879,0.025766,0.033422,0.068455,0.007350,0.011115,-0.000350,0.025748,-0.033416,-0.999110,-0.000160,-0.000504,0.003916,-9.652582,-13.395166,-42.266052,,,,,,,5
1508446742.572891,0.026260,0.033697,0.068431,0.006284,0.014304,-0.000356,0.026242,-0.033690,-0.999088,0.006931,-0.003694,0.002750,-9.636484,-13.405651,-42.266399,,,,,,,5
1508446742.592903,0.026821,0.033921,0.068368,0.005228,0.012166,-0.004625,0.026802,-0.033915,-0.999065,0.006294,-0.001074,0.004497,-9.614300,-13.416527,-42.268002,,,,,,,5
1508446742.612912,0.027024,0.034003,0.068305,0.002034,0.008985,-0.003589,0.027005,-0.033996,-0.999057,0.003452,-0.002869,0.002033,-9.597073,-13.423111,-42.269825,,,,,,,5
1508446742.632925,0.027329,0.033972,0.068255,-0.001164,0.007933,-0.001487,0.027310,-0.033965,-0.999050,0.002994,0.001708,0.005077,-9.584420,-13.425905,-42.271812,,,,,,,5
1508446742.652926,0.027717,0.033937,0.068237,0.004154,0.006880,0.001750,0.027697,-0.033930,-0.999040,0.006467,0.001307,0.005693,-9.572290,-13.422440,-42.275658,,,,,,,5
1508446742.672945,0.027753,0.034084,0.068242,0.006292,-0.002689,-0.000369,0.027734,-0.034078,-0.999034,0.009849,0.000325,0.005260,-9.560808,-13.425713,-42.277218,,,,,,,5
1508446742.692958,0.028146,0.034248,0.068166,0.000979,-0.011194,-0.003613,0.028125,-0.034241,-0.999018,0.010189,-0.001434,0.002207,-9.552821,-13.434643,-42.276188,,,,,,,5
1508446742.712954,0.028049,0.034258,0.068066,-0.004343,-0.018623,-0.002598,0.028029,-0.034251,-0.999020,0.003602,-0.001409,0.004483,-9.543862,-13.436728,-42.277550,,,,,,,5
1508446742.732978,0.027630,0.034333,0.068020,0.002047,-0.023934,-0.001485,0.027610,-0.034327,-0.999029,0.000939,-0.004049,0.003683,-9.555393,-13.437072,-42.274834,,,,,,,5
1508446742.752991,0.027139,0.034579,0.068018,0.007369,-0.027116,0.000686,0.027120,-0.034572,-0.999034,-0.000432,-0.005116,0.003856,-9.578965,-13.450682,-42.265167,,,,,,,5
1508446742.772987,0.026662,0.034749,0.068045,0.002043,-0.021801,0.000646,0.026643,-0.034742,-0.999041,0.000960,-0.001177,0.005755,-9.595765,-13.453806,-42.260365,,,,,,,5
1508446742.793012,0.026399,0.034780,0.067954,0.003118,-0.013332,-0.007856,0.026380,-0.034773,-0.999047,0.001956,0.000823,0.008736,-9.609426,-13.459520,-42.255440,,,,,,,5
1508446742.813025,0.025868,0.034753,0.067757,0.002059,-0.025017,-0.007874,0.025849,-0.034746,-0.999062,-0.007249,-0.001387,0.003914,-9.622396,-13.459852,-42.252384,,,,,,,5
1508446742.833015,0.025256,0.034933,0.067614,0.005253,-0.023957,-0.007847,0.025238,-0.034926,-0.999071,-0.005416,-0.005189,0.003389,-9.644333,-13.463663,-42.246162,,,,,,,5
1508446742.853045,0.024665,0.035350,0.067482,0.008446,-0.027138,-0.005693,0.024648,-0.035343,-0.999071,-0.000661,-0.004056,-0.000166,-9.671350,-13.481736,-42.234226,,,,,,,5
1508446742.873059,0.024047,0.035546,0.067414,0.005242,-0.014381,-0.003580,0.024030,-0.035539,-0.999079,-0.004972,0.000382,0.000941,-9.700207,-13.498392,-42.222286,,,,,,,5
1508446742.893068,0.023705,0.035696,0.067365,0.008426,-0.001628,-0.001415,0.023688,-0.035688,-0.999082,-0.005652,-0.000124,0.002943,-9.716072,-13.502536,-42.217316,,,,,,,5
1508446742.913053,0.023537,0.035893,0.067253,0.009510,-0.012278,-0.008867,0.023520,-0.035885,-0.999079,-0.001669,-0.000828,0.000956,-9.724721,-13.511002,-42.212612,,,,,,,5
1508446742.933085,0.023145,0.036010,0.067008,0.006326,-0.014420,-0.014219,0.023128,-0.036002,-0.999084,-0.003429,-0.001565,0.004211,-9.737120,-13.520471,-42.206722,,,,,,,5
1508446742.953102,0.022783,0.036270,0.066695,0.009523,-0.016550,-0.015259,0.022766,-0.036262,-0.999083,-0.002563,-0.003197,0.006270,-9.746058,-13.528151,-42.202198,,,,,,,5
1508446742.973087,0.022444,0.036568,0.066436,0.013773,-0.009104,-0.012024,0.022427,-0.036560,-0.999080,-0.002011,-0.001679,0.006236,-9.761834,-13.545414,-42.193016,,,,,,,5
1508446742.993125,0.022167,0.036914,0.066129,0.014845,-0.011241,-0.015210,0.022150,-0.036906,-0.999073,-0.005472,0.001734,0.000920,-9.769306,-13.565304,-42.184891,,,,,,,5
1508446743.013130,0.021816,0.037214,0.065770,0.020170,-0.007002,-0.017293,0.021799,-0.037206,-0.999070,-0.005976,0.002217,0.002854,-9.775836,-13.578908,-42.179005,,,,,,,5
1508446743.033146,0.021651,0.037540,0.065390,0.019103,0.004677,-0.019422,0.021634,-0.037531,-0.999061,-0.007168,0.002497,0.002327,-9.789865,-13.594637,-42.170681,,,,,,,5
1508446743.053159,0.021744,0.037884,0.065058,0.014860,0.039805,-0.016196,0.021727,-0.037875,-0.999046,-0.000578,-0.001859,0.007912,-9.780560,-13.617305,-42.165527,,,,,,,5
1508446743.073158,0.022910,0.038317,0.064763,0.018045,0.045131,-0.011906,0.022892,-0.038307,-0.999004,0.004208,-0.002373,0.009548,-9.740689,-13.636529,-42.168545,,,,,,,5
1508446743.093179,0.023877,0.038813,0.064537,0.025502,0.029201,-0.009727,0.023857,-0.038803,-0.998962,0.015938,-0.001907,0.003723,-9.707436,-13.653219,-42.170811,,,,,,,5
1508446743.113191,0.024806,0.039282,0.064257,0.029777,0.009006,-0.012902,0.024785,-0.039272,-0.998921,0.011379,0.003521,0.004094,-9.654535,-13.686033,-42.172318,,,,,,,5
1508446743.133199,0.025150,0.039733,0.063956,0.028717,-0.002678,-0.012919,0.025128,-0.039723,-0.998895,0.003986,0.002507,0.003488,-9.627604,-13.699985,-42.173946,,,,,,,5
1508446743.153212,0.025246,0.040288,0.063694,0.031906,-0.000547,-0.010762,0.025223,-0.040277,-0.998870,0.003662,0.000787,0.003265,-9.619741,-13.723943,-42.167950,,,,,,,5
1508446743.173225,0.025019,0.040925,0.063424,0.035106,-0.006926,-0.011805,0.024995,-0.040913,-0.998850,-0.002672,0.001012,0.002222,-9.618127,-13.760267,-42.156479,,,,,,,5
1508446743.193214,0.024938,0.041405,0.063269,0.026570,0.005848,-0.005477,0.024914,-0.041393,-0.998832,-0.003384,0.003353,-0.001168,-9.622991,-13.779981,-42.148926,,,,,,,5
1508446743.213247,0.025166,0.041697,0.063184,0.020170,0.019669,-0.003390,0.025141,-0.041685,-0.998814,-0.004267,0.005919,0.000752,-9.620649,-13.794185,-42.144817,,,,,,,5
1508446743.233261,0.025476,0.041796,0.063068,0.023391,0.022889,-0.005463,0.025451,-0.041784,-0.998802,-0.003936,0.008139,0.002159,-9.599712,-13.810205,-42.144344,,,,,,,5
1508446743.253269,0.025691,0.042070,0.062959,0.023390,0.027134,-0.006524,0.025666,-0.042057,-0.998785,-0.007706,0.003209,-0.003030,-9.593235,-13.812953,-42.144917,,,,,,,5
1508446743.273259,0.026046,0.042562,0.062870,0.028709,0.025017,-0.003288,0.026020,-0.042549,-0.998756,-0.003345,0.001396,0.000541,-9.582706,-13.826005,-42.143032,,,,,,,5
1508446743.293284,0.026722,0.043084,0.062756,0.027655,0.014385,-0.006499,0.026694,-0.043071,-0.998715,0.004312,0.000804,0.000226,-9.552477,-13.859866,-42.138775,,,,,,,5
1508446743.313303,0.026944,0.043498,0.062558,0.018079,0.009071,-0.008711,0.026915,-0.043484,-0.998691,0.002016,0.001019,0.000980,-9.537685,-13.876041,-42.136803,,,,,,,5
1508446743.333287,0.027231,0.043786,0.062395,0.012747,0.014397,-0.005557,0.027202,-0.043772,-0.998671,0.000889,0.000651,0.003951,-9.523531,-13.891850,-42.134792,,,,,,,5
1508446743.353326,0.027599,0.044021,0.062255,0.015948,0.008014,-0.007665,0.027569,-0.044006,-0.998651,0.007298,0.001831,0.010202,-9.505376,-13.906751,-42.133976,,,,,,,5
1508446743.373336,0.027983,0.044315,0.062014,0.018085,0.010120,-0.012969,0.027951,-0.044301,-0.998627,0.008120,0.002721,0.008957,-9.494734,-13.917707,-42.132759,,,,,,,5
1508446743.393347,0.028491,0.044546,0.061733,0.012753,0.026059,-0.013001,0.028459,-0.044532,-0.998603,0.004882,0.003897,0.007514,-9.467567,-13.929824,-42.134869,,,,,,,5
1508446743.413359,0.029351,0.044714,0.061482,0.015955,0.032497,-0.009748,0.029317,-0.044699,-0.998570,0.002543,0.002905,0.005345,-9.427282,-13.945546,-42.138702,,,,,,,5
1508446743.433349,0.029971,0.045146,0.061334,0.029791,0.022949,-0.004318,0.029936,-0.045131,-0.998532,0.002596,0.003825,0.002912,-9.403287,-13.957306,-42.140167,,,,,,,5
1508446743.453380,0.030640,0.045510,0.061221,0.022341,0.013397,-0.003322,0.030603,-0.045494,-0.998496,0.007788,0.003319,-0.003717,-9.373854,-13.976193,-42.140469,,,,,,,5
1508446743.473392,0.031209,0.045677,0.061156,0.014892,-0.004649,-0.001267,0.031171,-0.045661,-0.998471,0.010058,0.004005,0.002468,-9.344145,-13.990993,-42.142155,,,,,,,5
1508446743.493390,0.031381,0.045784,0.061068,0.018089,-0.004657,-0.003370,0.031343,-0.045768,-0.998460,0.004867,0.005195,0.002687,-9.330474,-13.993089,-42.144485,,,,,,,5
1508446743.513414,0.031013,0.045983,0.060908,0.019169,-0.018487,-0.008696,0.030975,-0.045967,-0.998463,-0.004836,0.003410,0.005115,-9.330054,-14.000149,-42.142235,,,,,,,5
1508446743.533426,0.030495,0.046334,0.060808,0.022356,-0.014228,-0.005472,0.030458,-0.046317,-0.998462,-0.003785,0.003119,0.002201,-9.355021,-14.019528,-42.130253,,,,,,,5
1508446743.553437,0.030078,0.046543,0.060663,0.014902,-0.009979,-0.006595,0.030041,-0.046527,-0.998465,-0.004421,0.003146,0.004218,-9.369189,-14.027704,-42.124386,,,,,,,5
1508446743.573448,0.029826,0.046716,0.060494,0.019170,-0.000383,-0.009716,0.029789,-0.046699,-0.998465,-0.004612,0.004204,0.008307,-9.382670,-14.035919,-42.118645,,,,,,,5
1508446743.593455,0.029750,0.046993,0.060351,0.024479,0.011315,-0.005404,0.029713,-0.046975,-0.998454,-0.004673,0.004510,0.006419,-9.386082,-14.052477,-42.112366,,,,,,,5
1508446743.613470,0.029785,0.047345,0.060203,0.027674,0.020862,-0.008565,0.029747,-0.047327,-0.998436,-0.006981,0.004862,0.005669,-9.387391,-14.061680,-42.109001,,,,,,,5
1508446743.633458,0.030233,0.047747,0.059935,0.023421,0.029340,-0.014982,0.030194,-0.047729,-0.998404,-0.003796,0.004593,0.006644,-9.378646,-14.076824,-42.105888,,,,,,,5
1508446743.653483,0.030773,0.048062,0.059653,0.025547,0.032530,-0.013897,0.030733,-0.048044,-0.998372,-0.000459,0.003641,-0.001124,-9.343543,-14.103703,-42.104698,,,,,,,5
1508446743.673504,0.031366,0.048369,0.059311,0.018101,0.024028,-0.016095,0.031324,-0.048350,-0.998339,0.002246,0.003932,-0.001676,-9.322341,-14.116784,-42.105015,,,,,,,5
1508446743.693517,0.031975,0.048505,0.059062,0.010638,0.024051,-0.010832,0.031931,-0.048486,-0.998313,0.003072,0.005121,-0.000085,-9.291105,-14.125398,-42.109032,,,,,,,5
1508446743.713511,0.032638,0.048321,0.058907,0.015949,0.015628,-0.003307,0.032594,-0.048302,-0.998301,0.005919,0.007882,0.007441,-9.258221,-14.128144,-42.115353,,,,,,,5
1508446743.733525,0.032877,0.048644,0.058873,0.028731,-0.006675,-0.000024,0.032832,-0.048624,-0.998277,0.006032,0.007380,0.002931,-9.243931,-14.133891,-42.116566,,,,,,,5
1508446743.753547,0.032256,0.049245,0.058885,0.041526,-0.054475,0.003240,0.032211,-0.049226,-0.998268,0.004532,0.006623,-0.001884,-9.243946,-14.146718,-42.112251,,,,,,,5
1508446743.773560,0.031439,0.049582,0.058883,0.010650,-0.043849,-0.001266,0.031395,-0.049562,-0.998277,0.004463,0.001451,0.001863,-9.294559,-14.176866,-42.090969,,,,,,,5
1508446743.793556,0.030605,0.049803,0.058686,0.019191,-0.044960,-0.013973,0.030563,-0.049782,-0.998292,-0.000060,0.000130,0.011491,-9.315891,-14.181049,-42.084843,,,,,,,5
1508446743.813581,0.029368,0.050206,0.058478,0.023430,-0.027945,-0.007537,0.029326,-0.050185,-0.998309,-0.013091,0.002685,0.004703,-9.358295,-14.199411,-42.069241,,,,,,,5
1508446743.833594,0.028400,0.050481,0.058443,0.013822,-0.004545,-0.000145,0.028360,-0.050459,-0.998323,-0.017205,0.001937,0.007036,-9.405601,-14.218856,-42.052120,,,,,,,5
1508446743.853585,0.027994,0.050838,0.058590,0.035085,0.016730,0.011759,0.027954,-0.050816,-0.998317,-0.012558,0.005391,0.011561,-9.434972,-14.224977,-42.043472,,,,,,,5
1508446743.873601,0.028337,0.051623,0.059097,0.039295,0.034865,0.034167,0.028295,-0.051600,-0.998267,-0.009985,0.002391,0.010306,-9.438119,-14.240800,-42.037407,,,,,,,5
1508446743.893608,0.029296,0.052382,0.059790,0.040333,0.046580,0.034232,0.029251,-0.052358,-0.998200,0.006668,0.002157,0.010544,-9.416101,-14.279627,-42.029171,,,,,,,5
1508446743.913612,0.030399,0.052975,0.060145,0.051021,0.043306,0.010893,0.030352,-0.052950,-0.998136,0.001768,0.010363,0.014539,-9.379349,-14.295156,-42.032112,,,,,,,5
1508446743.933648,0.031282,0.053744,0.060158,0.059554,0.047514,0.000319,0.031232,-0.053718,-0.998068,-0.001034,0.008705,0.013555,-9.342393,-14.320234,-42.031803,,,,,,,5
1508446743.953635,0.031981,0.055371,0.060385,0.052062,0.061394,0.019433,0.031926,-0.055343,-0.997957,-0.014425,-0.012162,0.013139,-9.295362,-14.382429,-42.020992,,,,,,,5
1508446743.973671,0.033512,0.056673,0.060978,0.052008,0.097588,0.040755,0.033452,-0.056642,-0.997834,-0.010899,-0.014708,0.009339,-9.266035,-14.420436,-42.014442,,,,,,,5
1508446743.993657,0.037261,0.057832,0.062126,0.028433,0.281503,0.074772,0.037190,-0.057799,-0.997635,0.018764,-0.010560,0.048279,-9.218809,-14.461035,-42.010880,,,,,,,5
1508446744.013682,0.043096,0.057143,0.062913,-0.065868,-0.143874,-0.067940,0.043013,-0.057112,-0.997441,0.067781,0.014814,0.039296,-8.836149,-14.461477,-42.092873,,,,,,,5
1508446744.033697,0.039210,0.056449,0.062764,0.002075,-0.142446,0.046550,0.039137,-0.056419,-0.997640,0.054963,0.023079,-0.015040,-8.959997,-14.430422,-42.077351,,,,,,,5
1508446744.053715,0.035180,0.057807,0.061326,0.112005,-0.189770,-0.113300,0.035114,-0.057774,-0.997712,0.063717,0.048619,-0.015456,-9.106517,-14.442919,-42.041595,,,,,,,5
1508446744.073727,0.032618,0.058555,0.059585,0.039437,-0.082218,-0.050998,0.032557,-0.058521,-0.997755,-0.016398,0.017963,0.017073,-9.249109,-14.534182,-41.978966,,,,,,,5
1508446744.093714,0.034417,0.058853,0.059837,0.035932,0.236786,0.035459,0.034351,-0.058819,-0.997677,0.006543,0.017437,0.056943,-9.261529,-14.547750,-41.971527,,,,,,,5
1508446744.113749,0.039691,0.061187,0.060543,0.124320,0.205935,0.036165,0.039607,-0.061148,-0.997343,0.003698,-0.031274,-0.080950,-9.071092,-14.592885,-41.997440,,,,,,,5
1508446744.133762,0.039686,0.062973,0.061406,-0.016124,-0.057385,0.055037,0.039597,-0.062932,-0.997232,-0.045991,-0.022166,-0.000861,-8.974165,-14.715234,-41.975567,,,,,,,5
1508446744.153768,0.036212,0.062545,0.063111,-0.007568,-0.223024,0.080536,0.036134,-0.062504,-0.997390,-0.010941,0.038701,0.037323,-9.055287,-14.687873,-41.967724,,,,,,,5
1508446744.173783,0.031822,0.061454,0.063380,0.014976,-0.229781,-0.025757,0.031757,-0.061416,-0.997607,0.008984,0.049544,0.007357,-9.249218,-14.616489,-41.950352,,,,,,,5
1508446744.193794,0.028117,0.061273,0.062236,-0.019119,-0.161878,-0.064264,0.028060,-0.061235,-0.997729,-0.001647,0.027559,-0.000181,-9.455347,-14.630783,-41.899387,,,,,,,5
1508446744.213803,0.025219,0.060864,0.061361,-0.004281,-0.127791,-0.035367,0.025169,-0.060827,-0.997831,-0.016319,0.001180,-0.000918,-9.545849,-14.621132,-41.882229,,,,,,,5
1508446744.233816,0.023330,0.061042,0.060602,0.012726,-0.067250,-0.036246,0.023284,-0.061004,-0.997866,-0.018249,-0.015366,0.020998,-9.636317,-14.628799,-41.858829,,,,,,,5
1508446744.253828,0.024046,0.061247,0.059734,0.018012,0.045318,-0.046764,0.023998,-0.061209,-0.997836,-0.002315,-0.000559,0.006351,-9.637798,-14.649296,-41.851318,,,,,,,5
1508446744.273815,0.023028,0.062205,0.059332,0.053142,-0.091591,-0.003988,0.022982,-0.062165,-0.997801,-0.008486,-0.000915,0.000716,-9.628526,-14.675842,-41.844154,,,,,,,5
1508446744.293849,0.021105,0.062695,0.059152,0.029764,-0.143673,-0.015933,0.021062,-0.062654,-0.997813,0.030544,0.009492,0.006129,-9.687434,-14.707895,-41.819294,,,,,,,5
1508446744.313863,0.018741,0.062915,0.058169,0.004281,-0.084370,-0.073594,0.018703,-0.062874,-0.997846,0.007145,0.003471,0.009550,-9.816107,-14.736772,-41.779106,,,,,,,5
1508446744.333870,0.016120,0.064160,0.056311,0.015011,-0.199149,-0.085305,0.016086,-0.064116,-0.997813,-0.042469,-0.041398,-0.008825,-9.880346,-14.805347,-41.739697,,,,,,,5
1508446744.353883,0.012309,0.063923,0.056185,-0.024640,-0.100980,0.032629,0.012283,-0.063879,-0.997882,0.012680,-0.025186,0.037173,-10.008813,-14.816236,-41.705212,,,,,,,5
1508446744.373871,0.015816,0.064972,0.056139,0.081834,0.077272,-0.017466,0.015782,-0.064926,-0.997765,0.067531,0.002976,0.005532,-9.943816,-14.830310,-41.715759,,,,,,,5
1508446744.393898,0.018300,0.066795,0.055429,0.069047,0.157956,-0.034546,0.018258,-0.066745,-0.997603,0.020468,-0.030301,0.007048,-9.880380,-14.893762,-41.708225,,,,,,,5
1508446744.413915,0.023645,0.066296,0.054952,-0.189756,0.265433,-0.021694,0.023591,-0.066247,-0.997524,-0.025101,-0.027335,-0.040974,-9.707510,-14.989045,-41.714684,,,,,,,5
1508446744.433908,0.026642,0.064756,0.054209,0.027579,0.080404,-0.041335,0.026583,-0.064711,-0.997550,-0.026400,0.041655,0.040839,-9.470654,-14.851913,-41.818050,,,,,,,5
1508446744.453926,0.028095,0.066772,0.053593,0.086094,0.101692,-0.020606,0.028029,-0.066722,-0.997378,-0.001951,0.045391,-0.007490,-9.423813,-14.905890,-41.809425,,,,,,,5
1508446744.473950,0.030317,0.066379,0.053662,0.005135,0.052987,0.012761,0.030246,-0.066330,-0.997339,0.015821,0.026688,-0.029959,-9.316719,-14.930989,-41.824467,,,,,,,5
1508446744.493963,0.030586,0.066951,0.053637,0.052037,0.012528,-0.006048,0.030513,-0.066901,-0.997293,-0.008357,0.021643,0.040643,-9.282903,-14.945676,-41.826740,,,,,,,5
1508446744.513953,0.032167,0.068541,0.053455,0.083924,0.111321,-0.002516,0.032085,-0.068487,-0.997136,0.000980,0.015493,0.030339,-9.256436,-14.988750,-41.817196,,,,,,,5
1508446744.533984,0.034890,0.069067,0.053379,0.049836,0.124103,0.001471,0.034799,-0.069012,-0.997009,0.010367,0.023174,0.002151,-9.149523,-15.025038,-41.827698,,,,,,,5
1508446744.553996,0.036741,0.069921,0.053536,0.038128,0.060425,0.017298,0.036643,-0.069864,-0.996883,-0.010825,-0.001150,-0.036060,-9.034010,-15.073947,-41.835209,,,,,,,5
1508446744.573979,0.037000,0.071346,0.053968,0.025359,0.028582,0.023557,0.036897,-0.071285,-0.996773,-0.008928,-0.022602,-0.019187,-9.018465,-15.097629,-41.830025,,,,,,,5
1508446744.594018,0.036356,0.071795,0.054396,0.025433,-0.090429,0.014950,0.036254,-0.071734,-0.996765,-0.005859,-0.005751,-0.011963,-9.022956,-15.143180,-41.812588,,,,,,,5
1508446744.614030,0.036355,0.072538,0.054702,0.033909,-0.016056,0.018270,0.036252,-0.072474,-0.996711,0.014362,-0.005712,-0.003716,-9.070107,-15.162857,-41.795250,,,,,,,5
1508446744.634041,0.036078,0.073200,0.054964,0.027524,-0.000140,0.011841,0.035974,-0.073134,-0.996673,0.002829,-0.011506,0.005630,-9.065434,-15.191233,-41.785957,,,,,,,5
1508446744.654051,0.036630,0.073330,0.054964,0.003050,0.028497,-0.005375,0.036524,-0.073264,-0.996644,0.002676,0.003211,-0.001998,-9.063151,-15.209072,-41.779964,,,,,,,5
1508446744.674063,0.036241,0.073406,0.054629,0.009506,-0.043808,-0.023477,0.036136,-0.073340,-0.996652,0.003232,0.020468,0.017648,-9.051342,-15.211038,-41.781807,,,,,,,5
1508446744.694069,0.036439,0.071586,0.054277,0.012668,-0.012982,-0.018105,0.036337,-0.071524,-0.996777,-0.001532,0.027259,0.004559,-9.042264,-15.176149,-41.796459,,,,,,,5
1508446744.714086,0.036292,0.070968,0.053842,0.011611,-0.011941,-0.024501,0.036193,-0.070909,-0.996826,0.000291,0.024491,0.002289,-9.045482,-15.147401,-41.806190,,,,,,,5
1508446744.734080,0.034911,0.070737,0.053166,0.034057,-0.126748,-0.042504,0.034817,-0.070678,-0.996891,-0.004299,0.013641,0.040333,-9.071851,-15.109848,-41.814064,,,,,,,5
1508446744.754097,0.034449,0.070944,0.052720,0.017974,-0.018266,-0.009547,0.034355,-0.070884,-0.996893,0.004433,0.011604,-0.008326,-9.104373,-15.125544,-41.801319,,,,,,,5
1508446744.774114,0.034749,0.071337,0.052948,0.025361,0.000964,0.022471,0.034653,-0.071276,-0.996854,-0.005417,0.009234,-0.007540,-9.105087,-15.139203,-41.796219,,,,,,,5
1508446744.794108,0.035565,0.071263,0.053603,0.013586,0.066891,0.038394,0.035468,-0.071203,-0.996831,0.004678,0.004262,-0.007075,-9.096384,-15.140652,-41.797588,,,,,,,5
1508446744.814125,0.036518,0.070986,0.054231,-0.017245,0.036036,0.020016,0.036418,-0.070927,-0.996817,-0.001628,0.007511,0.001348,-9.054592,-15.135944,-41.808369,,,,,,,5
1508446744.834152,0.037060,0.070695,0.054305,-0.005473,-0.017152,0.000907,0.036959,-0.070636,-0.996817,0.014555,0.000369,0.001212,-9.014048,-15.109169,-41.826809,,,,,,,5
1508446744.854164,0.037629,0.071191,0.054230,0.012624,-0.010779,0.002126,0.037525,-0.071131,-0.996761,0.005367,-0.008382,0.002925,-8.999426,-15.112496,-41.828754,,,,,,,5
1508446744.874173,0.037357,0.071779,0.054256,0.019022,-0.027779,0.002166,0.037252,-0.071717,-0.996729,0.004481,-0.007522,-0.001028,-9.000945,-15.133286,-41.820911,,,,,,,5
1508446744.894185,0.036770,0.072380,0.054205,0.006256,-0.020362,-0.005386,0.036665,-0.072317,-0.996708,-0.003187,-0.009318,0.013996,-9.022761,-15.171548,-41.802345,,,,,,,5
1508446744.914198,0.035995,0.072746,0.054175,-0.016116,-0.005465,-0.001301,0.035892,-0.072682,-0.996709,-0.008579,-0.007427,0.009191,-9.051141,-15.184853,-41.791374,,,,,,,5
1508446744.934202,0.035972,0.072619,0.054183,-0.011863,0.008343,-0.001255,0.035869,-0.072555,-0.996719,-0.003658,-0.005234,0.013443,-9.063308,-15.184404,-41.788902,,,,,,,5
1508446744.954219,0.036506,0.072451,0.054068,-0.002290,0.053991,-0.008595,0.036402,-0.072387,-0.996712,-0.010798,0.002288,0.012886,-9.063695,-15.181311,-41.789940,,,,,,,5
1508446744.974231,0.036802,0.072528,0.053865,0.017947,0.060329,-0.014811,0.036697,-0.072464,-0.996696,-0.017548,0.003357,0.003471,-9.017718,-15.185349,-41.798420,,,,,,,5
1508446744.994210,0.036846,0.072801,0.053705,0.004098,0.049734,-0.007480,0.036740,-0.072736,-0.996674,-0.014615,-0.001437,-0.003494,-9.027472,-15.193926,-41.793198,,,,,,,5
1508446745.014253,0.037956,0.072731,0.053694,-0.008703,0.060402,0.003070,0.037846,-0.072667,-0.996638,0.003520,0.001347,-0.001943,-9.004130,-15.201031,-41.795650,,,,,,,5
1508446745.034265,0.039597,0.072604,0.053820,-0.007654,0.068924,0.009474,0.039482,-0.072540,-0.996584,0.006218,-0.000733,0.000749,-8.929422,-15.190453,-41.815517,,,,,,,5
1508446745.054257,0.041518,0.072079,0.053984,-0.008824,0.057328,0.008494,0.041398,-0.072017,-0.996544,0.007522,0.006541,0.008217,-8.849795,-15.174265,-41.838318,,,,,,,5
1508446745.074286,0.042472,0.071803,0.054043,0.000783,0.032865,0.001101,0.042350,-0.071741,-0.996524,0.003747,0.008875,0.005816,-8.809714,-15.163170,-41.850796,,,,,,,5
1508446745.094298,0.043054,0.071561,0.054029,0.013565,0.017986,0.001195,0.042930,-0.071500,-0.996516,0.000298,0.009183,0.007747,-8.779513,-15.146542,-41.863163,,,,,,,5
1508446745.114296,0.043038,0.071545,0.054109,0.032716,0.027552,0.005620,0.042914,-0.071484,-0.996518,-0.005820,0.006863,0.002469,-8.766835,-15.142296,-41.867355,,,,,,,5
1508446745.134320,0.043923,0.071980,0.054292,0.022036,0.064764,0.013013,0.043795,-0.071917,-0.996449,-0.006014,0.004611,0.001972,-8.750669,-15.153901,-41.866539,,,,,,,5
,,,,,,,,,,,,,,,,42.293327,-71.264164,60.004101,-1.000000,-1.000000,1508446745.142562,5
1508446745.154329,0.044953,0.072012,0.054629,0.007116,0.076471,0.017158,0.044821,-0.071950,-0.996401,-0.002936,0.006962,0.007036,-8.706072,-15.161676,-41.873020,,,,,,,5
1508446745.174325,0.046623,0.071879,0.054929,0.002855,0.096639,0.011814,0.046485,-0.071818,-0.996334,-0.006019,0.009287,0.012539,-8.660375,-15.156082,-41.884518,,,,,,,5
1508446745.194341,0.048473,0.071749,0.055118,0.014586,0.083858,0.004448,0.048329,-0.071687,-0.996256,-0.008199,0.012651,0.010828,-8.590984,-15.136499,-41.905888,,,,,,,5
1508446745.214353,0.050199,0.071912,0.055352,0.014549,0.113644,0.016182,0.050048,-0.071850,-0.996159,0.006867,0.001537,-0.004024,-8.512088,-15.143757,-41.919361,,,,,,,5
1508446745.234358,0.052129,0.072280,0.055705,0.024140,0.093459,0.017311,0.051970,-0.072217,-0.996034,-0.001967,0.003705,0.007158,-8.442601,-15.151067,-41.930775,,,,,,,5
1508446745.254387,0.053793,0.072871,0.055897,0.027352,0.087053,0.008815,0.053625,-0.072807,-0.995903,-0.004583,0.002052,0.006493,-8.373791,-15.166970,-41.938824,,,,,,,5
1508446745.274400,0.055780,0.073140,0.055937,0.011366,0.127420,0.005519,0.055602,-0.073074,-0.995775,0.007294,0.003662,0.000460,-8.290722,-15.190460,-41.946819,,,,,,,5
1508446745.294391,0.058213,0.073511,0.055946,0.017760,0.126343,0.002377,0.058023,-0.073445,-0.995610,-0.005121,-0.001491,-0.011058,-8.202909,-15.196198,-41.962002,,,,,,,5
1508446745.314421,0.060801,0.073861,0.056030,0.002845,0.124249,0.008641,0.060598,-0.073794,-0.995431,0.002436,-0.004118,-0.000648,-8.101622,-15.212209,-41.975880,,,,,,,5
1508446745.334433,0.063448,0.073817,0.056301,-0.011008,0.110484,0.019163,0.063233,-0.073750,-0.995270,0.008606,-0.001369,0.005997,-7.970615,-15.214715,-42.000046,,,,,,,5
1508446745.354439,0.066282,0.073613,0.056740,-0.003565,0.103074,0.026672,0.066054,-0.073546,-0.995102,0.017030,0.002623,0.010803,-7.883267,-15.206076,-42.019653,,,,,,,5
1508446745.374455,0.068756,0.073681,0.057286,0.004966,0.058475,0.032033,0.068515,-0.073615,-0.994930,0.020749,-0.000879,0.002682,-7.771963,-15.196682,-42.043781,,,,,,,5
1508446745.394467,0.070255,0.073935,0.057815,0.015647,0.006405,0.027822,0.070005,-0.073867,-0.994808,0.024401,0.000946,0.006969,-7.694661,-15.200102,-42.056759,,,,,,,5
1508446745.414467,0.071035,0.074411,0.057987,0.003990,-0.023407,0.005344,0.070778,-0.074343,-0.994718,0.009605,-0.008268,0.015058,-7.645577,-15.211125,-42.061726,,,,,,,5
1508446745.434483,0.071152,0.074732,0.058100,0.013563,-0.003225,0.005438,0.070894,-0.074663,-0.994686,0.013488,-0.004241,0.003231,-7.647745,-15.223126,-42.056988,,,,,,,5
1508446745.454501,0.071691,0.074978,0.058088,0.010379,-0.001119,-0.000975,0.071428,-0.074908,-0.994629,0.014540,-0.001417,0.004059,-7.626910,-15.235370,-42.056339,,,,,,,5
1508446745.474485,0.072320,0.075280,0.057945,0.005062,-0.005369,-0.003152,0.072053,-0.075209,-0.994561,0.008437,-0.004442,0.009103,-7.594802,-15.250946,-42.056507,,,,,,,5
1508446745.494522,0.072324,0.075489,0.057825,0.009333,-0.018129,-0.006320,0.072055,-0.075418,-0.994545,0.009411,0.000497,0.004219,-7.589298,-15.261737,-42.053585,,,,,,,5
1508446745.514537,0.072034,0.075663,0.057597,0.005086,-0.022394,-0.011682,0.071766,-0.075591,-0.994553,0.001949,0.000381,0.002900,-7.593974,-15.274810,-42.047989,,,,,,,5
1508446745.534533,0.071807,0.075838,0.057379,0.011461,-0.004329,-0.009487,0.071539,-0.075766,-0.994556,-0.000433,-0.000208,0.004825,-7.601047,-15.279888,-42.044872,,,,,,,5
1508446745.554530,0.072148,0.076034,0.057146,0.013581,0.014793,-0.009455,0.071877,-0.075961,-0.994517,0.006676,0.000918,0.002192,-7.593315,-15.290545,-42.042393,,,,,,,5
1508446745.574565,0.072629,0.076411,0.056903,0.025293,0.017971,-0.010420,0.072353,-0.076336,-0.994453,-0.001492,0.000576,0.007820,-7.567304,-15.308662,-42.040489,,,,,,,5
1508446745.594551,0.072901,0.076948,0.056652,0.025301,0.006282,-0.011494,0.072621,-0.076872,-0.994393,0.001201,-0.000047,0.006005,-7.555675,-15.327037,-42.035885,,,,,,,5
1508446745.614588,0.072910,0.077337,0.056402,0.022111,-0.006461,-0.010465,0.072628,-0.077260,-0.994362,0.001240,0.002935,0.005745,-7.546010,-15.348046,-42.029953,,,,,,,5
1508446745.634601,0.072750,0.077372,0.056252,-0.002381,-0.023422,-0.004292,0.072468,-0.077295,-0.994371,0.005245,0.002938,0.008577,-7.552361,-15.363400,-42.023205,,,,,,,5
1508446745.654593,0.072688,0.077624,0.056279,0.015694,-0.006399,0.005453,0.072406,-0.077546,-0.994356,0.005796,0.000734,0.010271,-7.556599,-15.365043,-42.021843,,,,,,,5
1508446745.674623,0.072394,0.077755,0.056359,0.006116,-0.011710,0.004305,0.072112,-0.077676,-0.994367,-0.002089,0.004282,0.003553,-7.562590,-15.373006,-42.017849,,,,,,,5
1508446745.694634,0.071722,0.077859,0.056458,0.002931,-0.026586,0.003203,0.071444,-0.077781,-0.994407,-0.011019,0.000159,0.003013,-7.581743,-15.378698,-42.012318,,,,,,,5
1508446745.714621,0.071139,0.077975,0.056579,0.006113,-0.025502,0.009619,0.070863,-0.077896,-0.994440,-0.008469,-0.000626,0.005319,-7.611101,-15.380656,-42.006294,,,,,,,5
1508446745.734656,0.070987,0.078005,0.056730,0.003975,0.003171,0.006428,0.070711,-0.077926,-0.994448,0.001203,0.003447,0.002108,-7.630879,-15.380895,-42.002613,,,,,,,5
1508446745.754668,0.071152,0.078190,0.056933,0.002888,0.021257,0.013886,0.070875,-0.078111,-0.994422,-0.001936,-0.002532,0.004218,-7.629612,-15.384868,-42.001389,,,,,,,5
1508446745.774650,0.071858,0.078102,0.057150,-0.000300,0.026553,0.008540,0.071577,-0.078022,-0.994379,0.001390,0.001576,0.003092,-7.612559,-15.384176,-42.004738,,,,,,,5
1508446745.794690,0.072269,0.078002,0.057217,0.003979,0.011653,0.001111,0.071986,-0.077923,-0.994357,0.002400,0.003445,0.005862,-7.592398,-15.378250,-42.010559,,,,,,,5
1508446745.814702,0.072694,0.077991,0.057156,0.003986,0.012701,-0.003147,0.072409,-0.077912,-0.994327,0.001992,0.001283,0.004123,-7.570800,-15.377107,-42.014874,,,,,,,5
1508446745.834694,0.072875,0.078197,0.057161,0.000787,0.004223,0.002144,0.072588,-0.078117,-0.994298,0.001523,-0.003747,-0.002910,-7.565549,-15.377209,-42.015781,,,,,,,5
1508446745.854723,0.072431,0.078495,0.057164,0.018919,-0.046789,-0.000939,0.072145,-0.078415,-0.994307,-0.000489,-0.002793,-0.016313,-7.558486,-15.390293,-42.012260,,,,,,,5
1508446745.874736,0.072133,0.078883,0.057084,0.005072,-0.029787,-0.002105,0.071847,-0.078801,-0.994298,-0.000252,-0.005916,-0.004512,-7.574692,-15.404985,-42.003956,,,,,,,5
1508446745.894746,0.071736,0.079267,0.057074,-0.000262,-0.006413,-0.002131,0.071449,-0.079184,-0.994296,-0.000374,-0.004511,-0.003461,-7.604366,-15.427152,-41.990456,,,,,,,5
1508446745.914742,0.071922,0.079250,0.057016,-0.004534,0.028639,-0.004270,0.071635,-0.079167,-0.994284,-0.001887,-0.001552,0.017142,-7.608065,-15.430017,-41.988735,,,,,,,5
1508446745.934764,0.072421,0.079395,0.056927,-0.004527,0.021199,-0.005340,0.072130,-0.079312,-0.994237,0.000334,-0.003223,0.007527,-7.581499,-15.435175,-41.991646,,,,,,,5
1508446745.954781,0.072663,0.079246,0.056795,-0.007712,0.005263,-0.006443,0.072371,-0.079163,-0.994231,0.004411,0.002884,0.012725,-7.570338,-15.435831,-41.993416,,,,,,,5
1508446745.974767,0.072960,0.079054,0.056586,-0.006640,0.008432,-0.011755,0.072668,-0.078972,-0.994225,0.005716,0.002586,0.003533,-7.561059,-15.431822,-41.996563,,,,,,,5
1508446745.994792,0.073330,0.078805,0.056368,-0.005575,-0.004304,-0.008562,0.073037,-0.078724,-0.994217,0.005393,0.004093,0.003495,-7.535142,-15.423265,-42.004364,,,,,,,5
1508446746.014809,0.072971,0.078684,0.056169,-0.001302,-0.031926,-0.008548,0.072681,-0.078602,-0.994253,0.002713,0.002888,0.004126,-7.534455,-15.418323,-42.006302,,,,,,,5
1508446746.034824,0.072037,0.078734,0.056044,0.005081,-0.041471,-0.003179,0.071752,-0.078653,-0.994317,0.002207,0.001291,-0.000373,-7.561510,-15.417258,-42.001827,,,,,,,5
1508446746.054832,0.071274,0.078815,0.056012,0.001774,-0.034989,0.000099,0.070993,-0.078733,-0.994365,-0.000116,-0.000048,0.000667,-7.604755,-15.422853,-41.991966,,,,,,,5
1508446746.074848,0.070678,0.078841,0.056039,0.001767,-0.024361,0.001172,0.070400,-0.078760,-0.994405,-0.001247,0.000207,0.002217,-7.626563,-15.423754,-41.987682,,,,,,,5
1508446746.094858,0.070101,0.078940,0.056051,0.002833,-0.015875,-0.002007,0.069825,-0.078858,-0.994437,-0.007188,-0.000594,0.004585,-7.655038,-15.426632,-41.981441,,,,,,,5
1508446746.114870,0.069395,0.079033,0.056009,0.004962,-0.007386,-0.004112,0.069123,-0.078950,-0.994479,-0.013321,-0.001036,0.007953,-7.676208,-15.429604,-41.976482,,,,,,,5
1508446746.134854,0.069081,0.079049,0.055967,-0.001436,0.004309,-0.002026,0.068811,-0.078967,-0.994500,-0.003412,-0.000379,0.006340,-7.702538,-15.433078,-41.970383,,,,,,,5
1508446746.154892,0.069150,0.078989,0.055976,-0.001444,0.012815,0.000109,0.068879,-0.078907,-0.994500,-0.002961,0.000919,0.004921,-7.703872,-15.431658,-41.970661,,,,,,,5
1508446746.174904,0.069428,0.078769,0.056018,-0.008904,0.009647,0.004304,0.069158,-0.078688,-0.994498,0.001231,0.002531,0.003989,-7.693205,-15.425610,-41.974838,,,,,,,5
1508446746.194906,0.069726,0.078399,0.056123,-0.007840,0.010710,0.004314,0.069456,-0.078319,-0.994506,-0.000578,0.005198,-0.011079,-7.679039,-15.412412,-41.982281,,,,,,,5
1508446746.214901,0.069716,0.078190,0.056189,-0.013163,0.014958,0.003209,0.069447,-0.078110,-0.994523,-0.003926,-0.005355,0.020722,-7.680656,-15.396869,-41.987686,,,,,,,5
1508446746.234938,0.069872,0.078134,0.056158,-0.006757,0.002185,-0.003137,0.069603,-0.078054,-0.994516,-0.000724,0.002691,0.000254,-7.674649,-15.397907,-41.988407,,,,,,,5
1508446746.254949,0.070130,0.078204,0.056020,-0.006752,0.008545,-0.007391,0.069858,-0.078124,-0.994493,0.003002,-0.001603,0.004365,-7.665267,-15.397380,-41.990311,,,,,,,5
1508446746.274960,0.070258,0.078181,0.055857,-0.000359,0.007472,-0.009468,0.069985,-0.078102,-0.994486,-0.001794,-0.001504,0.004297,-7.657688,-15.397305,-41.991722,,,,,,,5
1508446746.294963,0.070516,0.078291,0.055673,0.000704,0.004293,-0.007332,0.070242,-0.078212,-0.994459,0.005854,-0.003637,0.003370,-7.646640,-15.401258,-41.992287,,,,,,,5
1508446746.314984,0.070571,0.078359,0.055556,-0.002492,-0.003130,-0.004170,0.070296,-0.078279,-0.994450,0.002046,-0.004729,0.003788,-7.637573,-15.405420,-41.992409,,,,,,,5
1508446746.334966,0.070610,0.078363,0.055499,-0.003557,-0.006312,-0.003117,0.070335,-0.078283,-0.994447,0.005334,-0.002528,0.007936,-7.631551,-15.411365,-41.991322,,,,,,,5
1508446746.355004,0.070633,0.078262,0.055386,-0.002485,-0.008447,-0.006304,0.070358,-0.078182,-0.994453,-0.000534,0.002590,0.009117,-7.629970,-15.409142,-41.992428,,,,,,,5
1508446746.374989,0.070435,0.078155,0.055217,-0.000342,-0.018028,-0.011617,0.070162,-0.078076,-0.994475,-0.000612,0.001370,0.004317,-7.632073,-15.405462,-41.993397,,,,,,,5
1508446746.395026,0.070519,0.078076,0.055033,-0.002484,0.004286,-0.010553,0.070246,-0.077997,-0.994476,-0.001399,0.000391,0.005462,-7.634807,-15.402962,-41.993816,,,,,,,5
1508446746.415039,0.070539,0.078033,0.054904,-0.001431,0.004308,-0.004156,0.070266,-0.077954,-0.994478,-0.002959,0.000287,0.003557,-7.627420,-15.402890,-41.995182,,,,,,,5
1508446746.435051,0.070664,0.077982,0.054889,-0.002505,0.007510,0.000097,0.070390,-0.077903,-0.994473,-0.002779,0.000693,0.003994,-7.626477,-15.401573,-41.995834,,,,,,,5
1508446746.455060,0.070898,0.077843,0.054880,-0.006763,0.018125,-0.003124,0.070624,-0.077764,-0.994467,-0.001379,0.002492,0.004324,-7.619783,-15.399942,-41.997650,,,,,,,5
1508446746.475072,0.071436,0.077679,0.054766,-0.003582,0.045741,-0.004142,0.071160,-0.077601,-0.994442,-0.003640,0.001231,0.010082,-7.596253,-15.390638,-42.005322,,,,,,,5
1508446746.495071,0.072167,0.077666,0.054734,-0.006776,0.027701,0.001142,0.071887,-0.077588,-0.994390,-0.000201,-0.002063,0.002752,-7.570896,-15.389947,-42.010151,,,,,,,5
1508446746.515094,0.072502,0.077574,0.054731,-0.002501,0.003259,-0.000971,0.072221,-0.077496,-0.994373,0.000960,0.002331,0.007343,-7.548964,-15.388060,-42.014793,,,,,,,5
1508446746.535106,0.072630,0.077370,0.054688,0.008045,0.007596,0.001348,0.072349,-0.077293,-0.994380,0.000145,-0.000679,0.021983,-7.541162,-15.373443,-42.021542,,,,,,,5
1508446746.555119,0.072959,0.077552,0.054715,0.000592,-0.004073,0.004472,0.072676,-0.077474,-0.994342,0.003801,-0.001231,-0.000256,-7.527002,-15.383647,-42.020348,,,,,,,5
1508446746.575127,0.072794,0.077482,0.054849,-0.004729,-0.015748,0.006549,0.072511,-0.077404,-0.994359,0.004591,0.000027,0.003271,-7.530175,-15.382982,-42.020020,,,,,,,5
1508446746.595140,0.072698,0.077305,0.054950,-0.004730,-0.004072,0.003363,0.072417,-0.077228,-0.994380,0.000459,0.002612,0.005290,-7.533408,-15.377921,-42.021294,,,,,,,5
1508446746.615144,0.072469,0.077131,0.055007,0.002726,-0.007267,0.002358,0.072190,-0.077054,-0.994410,-0.003038,0.002591,0.005091,-7.544009,-15.365805,-42.023823,,,,,,,5
1508446746.635137,0.072128,0.077217,0.055083,-0.002603,-0.010437,0.006570,0.071851,-0.077140,-0.994428,-0.003995,-0.000832,0.004255,-7.550729,-15.365032,-42.022903,,,,,,,5
1508446746.655162,0.071943,0.077260,0.055175,0.000592,-0.008316,0.005534,0.071667,-0.077183,-0.994438,0.002536,-0.002148,0.003227,-7.572804,-15.365724,-42.018677,,,,,,,5
1508446746.675179,0.071932,0.077233,0.055293,-0.003673,0.002309,0.005507,0.071655,-0.077156,-0.994441,0.000442,-0.000084,0.003031,-7.574654,-15.366969,-42.017887,,,,,,,5
1508446746.695195,0.071860,0.077264,0.055420,-0.003672,0.002309,0.005507,0.071584,-0.077187,-0.994443,-0.004568,-0.003379,0.005918,-7.578589,-15.367178,-42.017101,,,,,,,5
1508446746.715207,0.071874,0.077416,0.055531,-0.001609,0.007639,0.004520,0.071597,-0.077339,-0.994431,-0.000842,-0.004540,0.005493,-7.580576,-15.366469,-42.017002,,,,,,,5
1508446746.735207,0.071936,0.077475,0.055626,-0.002668,0.002324,0.003443,0.071658,-0.077397,-0.994422,-0.001361,-0.003947,0.003074,-7.578074,-15.369304,-42.016415,,,,,,,5
1508446746.755227,0.071980,0.077451,0.055681,-0.005857,-0.000869,0.001285,0.071702,-0.077374,-0.994420,0.002456,-0.002842,0.003011,-7.576583,-15.372809,-42.015404,,,,,,,5
1508446746.775240,0.071965,0.077317,0.055696,-0.005851,-0.005125,-0.000848,0.071688,-0.077240,-0.994432,0.002027,-0.000061,0.007158,-7.579548,-15.365295,-42.017616,,,,,,,5
1508446746.795229,0.071890,0.077206,0.055628,-0.004779,-0.005140,-0.005098,0.071614,-0.077130,-0.994446,0.000118,0.000119,0.004929,-7.579432,-15.362244,-42.018753,,,,,,,5
1508446746.815262,0.071747,0.077106,0.055536,-0.003715,-0.006199,-0.004025,0.071472,-0.077029,-0.994464,-0.001968,0.000217,0.001925,-7.580486,-15.360106,-42.019344,,,,,,,5
1508446746.835275,0.071475,0.077221,0.055550,-0.004787,-0.005121,0.000226,0.071201,-0.077144,-0.994474,-0.003712,-0.005086,0.001051,-7.591437,-15.358044,-42.018124,,,,,,,5
1508446746.855263,0.071596,0.077008,0.055554,-0.005855,0.003375,-0.000841,0.071323,-0.076931,-0.994482,0.002575,0.002697,0.003408,-7.595157,-15.358318,-42.017349,,,,,,,5
1508446746.875296,0.071880,0.076770,0.055485,-0.000569,0.005502,-0.005004,0.071606,-0.076695,-0.994480,0.000690,0.001469,0.005588,-7.583375,-15.345746,-42.024071,,,,,,,5
1508446746.895308,0.071898,0.076704,0.055406,-0.003766,-0.000859,-0.001841,0.071625,-0.076629,-0.994484,-0.003326,0.001129,0.001411,-7.576554,-15.343565,-42.026096,,,,,,,5
1508446746.915304,0.071663,0.076790,0.055413,-0.002700,-0.009351,0.000291,0.071391,-0.076714,-0.994494,-0.002223,-0.003333,0.002093,-7.582469,-15.343292,-42.025127,,,,,,,5
1508446746.935329,0.071533,0.076694,0.055381,-0.005892,-0.001924,-0.002924,0.071262,-0.076619,-0.994511,-0.001438,-0.001246,0.005085,-7.582469,-15.343292,-42.025127,,,,,,,5
1508446746.955344,0.071703,0.076631,0.055337,-0.004833,0.009762,-0.002906,0.071431,-0.076556,-0.994503,0.001201,-0.000272,0.006329,-7.590436,-15.342461,-42.023998,,,,,,,5
1508446746.975338,0.071816,0.076758,0.055268,-0.003762,0.005505,-0.005030,0.071543,-0.076683,-0.994485,0.000997,-0.004051,0.007623,-7.581272,-15.342597,-42.025597,,,,,,,5
1508446746.995357,0.071989,0.076786,0.055183,-0.000570,0.007632,-0.003937,0.071715,-0.076710,-0.994471,0.001206,-0.002742,0.004740,-7.577053,-15.345540,-42.025284,,,,,,,5
1508446747.015352,0.072083,0.076804,0.055105,0.000438,0.000208,-0.002825,0.071808,-0.076728,-0.994463,-0.000290,-0.000832,0.002886,-7.565416,-15.348507,-42.026299,,,,,,,5
1508446747.035372,0.072025,0.076760,0.055056,-0.004885,-0.008280,-0.000746,0.071751,-0.076685,-0.994470,0.002391,0.000589,0.004724,-7.566669,-15.349943,-42.025551,,,,,,,5
1508446747.055394,0.071858,0.076675,0.054996,0.000447,-0.010422,-0.004962,0.071585,-0.076600,-0.994489,0.000223,0.002290,0.004376,-7.569993,-15.345270,-42.026657,,,,,,,5
1508446747.075410,0.071645,0.076688,0.054884,0.001514,-0.011488,-0.006019,0.071373,-0.076613,-0.994503,0.002159,-0.001207,0.004726,-7.581389,-15.345132,-42.024651,,,,,,,5
1508446747.095405,0.071516,0.076694,0.054781,-0.001685,-0.004046,-0.004975,0.071245,-0.076619,-0.994512,-0.000734,-0.000621,0.006215,-7.580879,-15.347262,-42.023964,,,,,,,5
1508446747.115430,0.071288,0.076680,0.054677,-0.005951,0.005520,-0.003938,0.071018,-0.076605,-0.994529,-0.003834,-0.002268,-0.005105,-7.594291,-15.350532,-42.020351,,,,,,,5
1508446747.135417,0.071503,0.076544,0.054627,0.000432,0.005529,-0.000691,0.071233,-0.076470,-0.994524,0.000834,0.002663,0.007509,-7.586316,-15.345996,-42.023445,,,,,,,5
1508446747.155418,0.071441,0.076565,0.054610,-0.002754,-0.008283,-0.001793,0.071171,-0.076490,-0.994527,-0.000477,-0.001940,0.002080,-7.582934,-15.343826,-42.024849,,,,,,,5
1508446747.175464,0.071198,0.076474,0.054617,-0.005951,-0.012519,0.001372,0.070930,-0.076399,-0.994551,0.000771,0.000441,0.004057,-7.591552,-15.343949,-42.023251,,,,,,,5
1508446747.195477,0.071146,0.076375,0.054635,-0.003883,-0.000842,-0.000684,0.070879,-0.076301,-0.994562,-0.000307,-0.001153,0.002589,-7.598192,-15.336439,-42.024792,,,,,,,5
1508446747.215473,0.071110,0.076320,0.054640,-0.004950,0.000224,0.000372,0.070843,-0.076246,-0.994569,-0.001736,0.001402,0.004884,-7.598791,-15.337511,-42.024292,,,,,,,5
1508446747.235498,0.071049,0.076261,0.054672,-0.001758,0.000227,0.001463,0.070783,-0.076187,-0.994578,-0.001660,-0.000977,0.001994,-7.599775,-15.333798,-42.025471,,,,,,,5
1508446747.255510,0.071026,0.076227,0.054716,-0.004951,0.002349,0.000374,0.070760,-0.076153,-0.994582,-0.001790,-0.001758,0.003524,-7.603821,-15.331047,-42.025738,,,,,,,5
1508446747.275507,0.071072,0.076258,0.054736,-0.003885,0.001287,0.000382,0.070805,-0.076184,-0.994577,0.001628,-0.001376,0.002801,-7.604607,-15.330451,-42.025814,,,,,,,5
1508446747.295528,0.070989,0.076016,0.054684,-0.012401,0.005533,-0.001815,0.070725,-0.075943,-0.994601,0.001708,-0.001617,0.002825,-7.604607,-15.330451,-42.025814,,,,,,,5
1508446747.315532,0.071049,0.075999,0.054681,-0.002827,0.011913,0.001464,0.070785,-0.075926,-0.994598,0.000672,0.000303,0.004882,-7.605101,-15.321552,-42.028973,,,,,,,5
1508446747.335437,0.071487,0.076050,0.054705,-0.002873,0.007657,0.000435,0.071220,-0.075977,-0.994563,0.004861,-0.001523,0.002223,-7.591118,-15.321741,-42.031429,,,,,,,5
1508446747.355462,0.071663,0.076010,0.054736,-0.003939,0.007662,0.001491,0.071395,-0.075937,-0.994553,0.001862,-0.000845,0.004853,-7.583819,-15.322324,-42.032536,,,,,,,5
1508446747.375457,0.071944,0.075941,0.054734,-0.002870,0.010838,-0.001692,0.071675,-0.075868,-0.994538,0.001018,0.000978,0.003755,-7.569410,-15.319153,-42.036285,,,,,,,5
1508446747.395471,0.072156,0.075874,0.054706,-0.001805,0.005530,-0.000622,0.071886,-0.075801,-0.994528,0.001448,0.000621,0.003790,-7.565668,-15.317966,-42.037392,,,,,,,5
1508446747.415496,0.072266,0.075907,0.054700,-0.001803,-0.000840,0.000438,0.071995,-0.075834,-0.994518,0.003185,-0.002581,0.003154,-7.551727,-15.317674,-42.040009,,,,,,,5
1508446747.435509,0.072606,0.075992,0.054648,-0.003934,0.012962,-0.002764,0.072333,-0.075919,-0.994487,0.004770,-0.002435,0.005870,-7.545000,-15.318867,-42.040779,,,,,,,5
1508446747.455506,0.072777,0.076034,0.054542,0.005658,0.010817,-0.006945,0.072503,-0.075961,-0.994471,0.003409,-0.000028,0.008784,-7.533655,-15.321210,-42.041962,,,,,,,5
1508446747.475529,0.072853,0.076257,0.054318,0.003544,-0.000885,-0.012295,0.072577,-0.076183,-0.994449,-0.001609,-0.001667,0.007571,-7.522567,-15.330022,-42.040733,,,,,,,5
1508446747.495543,0.072995,0.076261,0.054101,0.002431,-0.000889,-0.010138,0.072718,-0.076187,-0.994438,0.001867,0.001846,0.005043,-7.517195,-15.338392,-42.038643,,,,,,,5
1508446747.515548,0.072945,0.076289,0.053881,0.000301,0.000175,-0.010154,0.072669,-0.076215,-0.994440,-0.003256,-0.000002,0.001596,-7.512669,-15.340107,-42.038826,,,,,,,5
1508446747.535563,0.072706,0.076198,0.053743,0.003493,-0.010436,-0.005877,0.072431,-0.076125,-0.994464,-0.003279,0.002699,0.005359,-7.516096,-15.339741,-42.038345,,,,,,,5
1508446747.555576,0.072291,0.076466,0.053679,0.013063,-0.000865,-0.001532,0.072017,-0.076391,-0.994474,-0.003673,-0.004267,0.002485,-7.535308,-15.343687,-42.033470,,,,,,,5
1508446747.575565,0.072229,0.076892,0.053551,0.007757,-0.014690,-0.006910,0.071953,-0.076817,-0.994446,0.003135,-0.006405,0.002197,-7.537774,-15.359339,-42.027309,,,,,,,5
1508446747.595598,0.072087,0.077008,0.053392,-0.000768,-0.002996,-0.005906,0.071811,-0.076932,-0.994447,0.001293,-0.004123,0.000764,-7.542641,-15.371067,-42.022148,,,,,,,5
1508446747.615581,0.072004,0.077074,0.053339,0.000290,-0.004044,-0.001639,0.071728,-0.076997,-0.994448,-0.000607,-0.001509,0.003542,-7.546466,-15.377701,-42.019032,,,,,,,5
1508446747.635601,0.071753,0.077082,0.053319,-0.001842,-0.007223,0.000470,0.071479,-0.077006,-0.994465,-0.002082,-0.000173,0.003193,-7.552864,-15.380217,-42.016964,,,,,,,5
1508446747.655630,0.071585,0.076970,0.053350,-0.003973,-0.002972,0.000456,0.071312,-0.076894,-0.994486,-0.003044,0.001745,0.003504,-7.559216,-15.379431,-42.016109,,,,,,,5
1508446747.675643,0.071613,0.076983,0.053355,-0.004013,0.000200,0.000494,0.071340,-0.076907,-0.994483,0.001475,-0.001309,0.006156,-7.565287,-15.375844,-42.016327,,,,,,,5
1508446747.695640,0.071646,0.077031,0.053344,-0.002941,-0.000874,-0.002693,0.071372,-0.076955,-0.994477,-0.001243,-0.003215,0.004258,-7.562245,-15.376037,-42.016804,,,,,,,5
1508446747.715664,0.071966,0.076910,0.053275,-0.006140,0.015056,-0.004836,0.071691,-0.076834,-0.994463,0.000834,0.000204,0.004442,-7.559732,-15.376478,-42.017097,,,,,,,5
1508446747.735678,0.072347,0.076889,0.053124,-0.008261,0.013980,-0.009114,0.072071,-0.076813,-0.994437,0.001156,-0.002899,0.006751,-7.543259,-15.374648,-42.020725,,,,,,,5
1508446747.755673,0.072356,0.076729,0.052879,-0.025269,-0.006229,-0.018852,0.072080,-0.076653,-0.994449,-0.005109,-0.001701,0.001544,-7.522276,-15.373220,-42.025009,,,,,,,5
1508446747.775689,0.072174,0.076303,0.052602,-0.025277,-0.005152,-0.014592,0.071902,-0.076229,-0.994494,-0.000277,-0.004582,0.009585,-7.528356,-15.364973,-42.026936,,,,,,,5
1508446747.795714,0.072157,0.075849,0.052432,-0.026361,0.008685,-0.007137,0.071887,-0.075776,-0.994530,-0.003955,-0.002272,-0.000084,-7.527206,-15.341623,-42.035671,,,,,,,5
1508446747.815724,0.072526,0.075257,0.052529,-0.030651,0.019363,0.007742,0.072258,-0.075186,-0.994548,-0.003319,-0.001672,0.001826,-7.520598,-15.326210,-42.042477,,,,,,,5
1508446747.835732,0.072781,0.074918,0.052797,-0.021101,0.003428,0.013166,0.072513,-0.074848,-0.994555,0.001675,-0.002591,0.002612,-7.508984,-15.304304,-42.052532,,,,,,,5
1508446747.855744,0.072956,0.074645,0.053030,-0.007250,-0.004025,0.010081,0.072688,-0.074576,-0.994563,0.005025,0.001227,0.006083,-7.505338,-15.284880,-42.060246,,,,,,,5
1508446747.875755,0.072849,0.074499,0.053174,-0.011499,-0.005104,0.004721,0.072582,-0.074430,-0.994581,0.007374,0.002714,0.007063,-7.504498,-15.279255,-42.062439,,,,,,,5
1508446747.895766,0.072822,0.074142,0.053294,-0.017886,-0.015715,0.006790,0.072558,-0.074074,-0.994610,0.008436,0.002647,0.002285,-7.509554,-15.272097,-42.064137,,,,,,,5
1508446747.915778,0.072744,0.073776,0.053495,-0.011511,-0.005079,0.011110,0.072482,-0.073710,-0.994642,0.003064,0.001184,0.008543,-7.517006,-15.244827,-42.072697,,,,,,,5
1508446747.935787,0.072733,0.073870,0.053689,0.017262,-0.026370,0.002813,0.072471,-0.073803,-0.994636,0.002572,0.005916,0.004280,-7.514849,-15.242015,-42.074100,,,,,,,5
1508446747.955800,0.070045,0.072802,0.052529,-0.066782,-0.082713,-0.021348,0.069802,-0.072737,-0.994905,-0.039315,-0.044419,0.029528,-7.543036,-15.243620,-42.068478,,,,,,,5
1508446747.975813,0.068848,0.072832,0.052437,0.023682,-0.079554,-0.012051,0.068612,-0.072768,-0.994986,-0.007683,0.000762,0.009116,-7.648961,-15.207961,-42.062252,,,,,,,5
1508446747.995820,0.066898,0.071903,0.051625,-0.064591,-0.112609,-0.060718,0.066675,-0.071841,-0.995185,0.004766,0.007647,-0.014306,-7.701320,-15.213140,-42.050827,,,,,,,5
1508446748.015833,0.065287,0.070152,0.050127,-0.075234,-0.054242,-0.079927,0.065080,-0.070094,-0.995415,-0.007005,-0.003407,0.015496,-7.753561,-15.169286,-42.057068,,,,,,,5
1508446748.035845,0.066187,0.068680,0.049673,-0.083959,0.087325,-0.002166,0.065983,-0.068626,-0.995458,-0.074436,-0.052177,0.011831,-7.785587,-15.116453,-42.070171,,,,,,,5
1508446748.055856,0.067856,0.068383,0.049722,0.004368,0.145742,0.008190,0.067646,-0.068330,-0.995367,0.035229,0.002931,0.028600,-7.699192,-15.056810,-42.107445,,,,,,,5
1508446748.075861,0.071102,0.068369,0.049952,-0.022253,0.136209,0.012222,0.070876,-0.068316,-0.995143,0.023606,-0.002958,-0.005437,-7.699192,-15.056810,-42.107445,,,,,,,5
1508446748.095882,0.072558,0.067885,0.050381,-0.036070,0.068249,0.018445,0.072327,-0.067833,-0.995072,0.001617,-0.002556,0.003723,-7.491475,-15.038150,-42.151558,,,,,,,5
1508446748.115891,0.074478,0.067081,0.050782,-0.001994,0.042751,0.021901,0.074241,-0.067031,-0.994985,0.030342,0.019103,0.000097,-7.450222,-15.017537,-42.166214,,,,,,,5
1508446748.135888,0.074876,0.066324,0.050754,-0.065811,0.013995,-0.008460,0.074642,-0.066276,-0.995006,0.029621,0.014884,-0.026341,-7.394396,-14.989971,-42.185848,,,,,,,5
1508446748.155913,0.075214,0.065343,0.051019,-0.009434,0.006595,0.014392,0.074983,-0.065297,-0.995045,0.022124,0.005711,0.024280,-7.371620,-14.920122,-42.214584,,,,,,,5
1508446748.175924,0.077445,0.065402,0.051340,-0.007412,0.172366,0.028375,0.077203,-0.065355,-0.994871,-0.005883,-0.020476,0.043653,-7.343356,-14.919261,-42.219814,,,,,,,5
1508446748.195935,0.080973,0.065927,0.051705,-0.122342,0.180804,-0.006638,0.080709,-0.065880,-0.994558,0.001078,-0.053795,-0.011057,-7.210060,-14.901739,-42.248966,,,,,,,5
1508446748.215948,0.085304,0.062254,0.052045,-0.195854,0.220200,0.007691,0.085035,-0.062214,-0.994434,-0.023512,0.022571,0.001514,-6.999527,-14.820127,-42.313030,,,,,,,5
1508446748.235957,0.087707,0.059193,0.052359,-0.131858,0.100020,-0.021684,0.087442,-0.059159,-0.994412,-0.011834,0.017517,-0.014759,-6.889799,-14.704208,-42.371441,,,,,,,5
1508446748.255944,0.090067,0.058297,0.051926,0.031058,0.114774,-0.030976,0.089793,-0.058264,-0.994255,-0.001658,0.009924,0.004921,-6.825059,-14.624606,-42.409451,,,,,,,5
1508446748.275982,0.088200,0.059857,0.052316,0.179071,-0.270576,0.070040,0.087928,-0.059821,-0.994329,0.035730,0.010032,0.001379,-6.768480,-14.640219,-42.413132,,,,,,,5
1508446748.295986,0.073035,0.069837,0.056036,0.393221,-0.573422,0.079032,0.072792,-0.069780,-0.994903,0.046074,0.029374,0.134185,-7.220951,-14.864245,-42.260311,,,,,,,5
1508446748.316002,0.068403,0.071157,0.055030,-0.030510,-0.176397,-0.063616,0.068176,-0.071096,-0.995137,-0.026154,-0.043894,-0.061550,-7.604642,-15.096784,-42.110313,,,,,,,5
1508446748.336015,0.064058,0.070022,0.054571,-0.099854,-0.086944,-0.010883,0.063857,-0.069965,-0.995503,-0.033858,-0.010006,0.039311,-7.871767,-15.095027,-42.061829,,,,,,,5
1508446748.356014,0.062023,0.069873,0.054768,0.041733,-0.108194,0.009435,0.061832,-0.069817,-0.995642,-0.022190,-0.002464,0.028402,-7.928756,-15.054882,-42.065510,,,,,,,5
1508446748.376035,0.060638,0.070971,0.054861,0.043828,-0.046572,0.011629,0.060448,-0.070912,-0.995649,-0.017815,0.007634,-0.008959,-8.013324,-15.090579,-42.036686,,,,,,,5
1508446748.396048,0.060125,0.070948,0.055279,-0.008399,0.031032,0.019775,0.059937,-0.070888,-0.995682,-0.018342,0.004863,0.005280,-8.069018,-15.107922,-42.019798,,,,,,,5
1508446748.416059,0.061181,0.070756,0.055501,-0.008386,0.068151,0.001702,0.060990,-0.070697,-0.995632,-0.020203,0.017626,0.022243,-8.036299,-15.096880,-42.030037,,,,,,,5
1508446748.436071,0.062988,0.069799,0.055465,-0.021184,0.126566,-0.003683,0.062793,-0.069742,-0.995587,-0.014331,0.014979,0.020199,-8.036299,-15.096880,-42.030037,,,,,,,5
1508446748.456060,0.065095,0.069646,0.055456,0.000118,0.092561,-0.000312,0.064892,-0.069590,-0.995463,0.009663,0.004877,0.005686,-7.875378,-15.049479,-42.077469,,,,,,,5
1508446748.476092,0.066695,0.069693,0.055490,0.001192,0.067072,0.001807,0.066484,-0.069637,-0.995354,0.016722,-0.003163,0.000802,-7.802970,-15.050944,-42.090435,,,,,,,5
1508446748.496087,0.068868,0.069925,0.055376,-0.020072,0.029883,-0.004785,0.068646,-0.069868,-0.995192,0.031315,-0.011018,-0.006350,-7.711165,-15.068506,-42.101070,,,,,,,5
1508446748.516116,0.069135,0.069093,0.055328,-0.057320,0.003336,-0.007242,0.068915,-0.069038,-0.995231,0.039911,-0.011712,-0.006936,-7.684958,-15.039700,-42.116158,,,,,,,5
1508446748.536127,0.068457,0.067485,0.055102,-0.091326,-0.065761,-0.025676,0.068247,-0.067434,-0.995387,0.041402,-0.012110,-0.004049,-7.695963,-14.981832,-42.134769,,,,,,,5
1508446748.556115,0.065731,0.065778,0.054397,-0.066732,-0.192273,-0.048993,0.065541,-0.065731,-0.995683,0.041743,-0.009556,0.003419,-7.724438,-14.945158,-42.142582,,,,,,,5
1508446748.576150,0.060784,0.064703,0.053326,0.002516,-0.271986,-0.049547,0.060619,-0.064658,-0.996065,0.003025,0.012595,0.024965,-7.960548,-14.885942,-42.119598,,,,,,,5
1508446748.596160,0.056126,0.065484,0.052892,0.057765,-0.202797,-0.002189,0.055976,-0.065437,-0.996285,-0.032585,0.013191,0.011453,-8.155995,-14.891511,-42.080215,,,,,,,5
1508446748.616171,0.054204,0.066963,0.052140,0.083338,-0.048965,-0.057229,0.054056,-0.066913,-0.996293,-0.049341,0.017444,0.005601,-8.230928,-14.917957,-42.056252,,,,,,,5
1508446748.636184,0.055193,0.067879,0.050424,0.020489,0.117762,-0.083139,0.055038,-0.067826,-0.996178,-0.065613,-0.019378,0.003578,-8.240841,-15.021385,-42.017479,,,,,,,5
1508446748.656184,0.060585,0.067423,0.049589,-0.037245,0.343255,-0.012108,0.060411,-0.067372,-0.995897,-0.060456,-0.016811,0.008486,-8.111131,-15.030939,-42.039299,,,,,,,5
1508446748.676205,0.067936,0.066377,0.050529,-0.060819,0.361610,0.068632,0.067735,-0.066329,-0.995496,-0.030503,-0.012803,-0.006686,-7.895693,-15.008818,-42.088188,,,,,,,5
1508446748.696217,0.073404,0.065378,0.052124,-0.049036,0.219252,0.068622,0.073181,-0.065331,-0.995177,0.028213,0.004571,-0.018022,-7.502263,-14.920343,-42.191483,,,,,,,5
1508446748.716213,0.075386,0.064488,0.053290,-0.047842,0.047068,0.044012,0.075159,-0.064443,-0.995087,0.057471,0.017461,-0.010772,-7.397166,-14.869911,-42.227829,,,,,,,5
1508446748.736238,0.074577,0.063703,0.053897,-0.032821,-0.081583,0.015291,0.074357,-0.063660,-0.995198,0.048309,0.007843,-0.011760,-7.397166,-14.869911,-42.227829,,,,,,,5
1508446748.756251,0.071532,0.062968,0.054219,-0.038092,-0.176139,0.011982,0.071329,-0.062926,-0.995466,0.015936,-0.010667,-0.028704,-7.455705,-14.811716,-42.237988,,,,,,,5
1508446748.776262,0.067430,0.061785,0.054805,-0.084938,-0.187743,0.030788,0.067251,-0.061746,-0.995824,-0.025442,-0.044791,-0.047221,-7.699944,-14.748963,-42.216122,,,,,,,5
1508446748.796258,0.064339,0.059724,0.055958,-0.110566,-0.132396,0.057237,0.064180,-0.059689,-0.996152,-0.016679,-0.054340,-0.042712,-7.699944,-14.748963,-42.216122,,,,,,,5
1508446748.816283,0.061938,0.057498,0.057253,-0.119093,-0.111148,0.056118,0.061796,-0.057467,-0.996433,0.012743,-0.032392,-0.017239,-7.971657,-14.552930,-42.233719,,,,,,,5
1508446748.836296,0.059135,0.055063,0.058382,-0.128634,-0.152615,0.044296,0.059011,-0.055035,-0.996739,0.016139,-0.017063,-0.014278,-8.093660,-14.441042,-42.248917,,,,,,,5
1508446748.856286,0.055717,0.052609,0.059322,-0.119029,-0.171768,0.036907,0.055611,-0.052584,-0.997067,0.009651,0.007830,0.004071,-8.205005,-14.354287,-42.257004,,,,,,,5
1508446748.876320,0.052417,0.050424,0.060171,-0.106263,-0.156894,0.039153,0.052327,-0.050403,-0.997357,-0.010838,0.007190,0.017712,-8.394886,-14.223603,-42.263897,,,,,,,5
1508446748.896329,0.049500,0.048485,0.061180,-0.097776,-0.130306,0.048826,0.049421,-0.048466,-0.997601,-0.012281,0.001347,0.014798,-8.501312,-14.153125,-42.266281,,,,,,,5
1508446748.916314,0.047195,0.046516,0.062307,-0.107376,-0.101610,0.050898,0.047127,-0.046500,-0.997806,-0.014778,-0.015985,-0.002911,-8.594458,-14.085115,-42.270164,,,,,,,5
1508446748.936335,0.044961,0.044976,0.063514,-0.141430,-0.054851,0.056008,0.044901,-0.044961,-0.997979,-0.009134,-0.010673,0.006799,-8.766961,-13.968536,-42.273422,,,,,,,5
1508446748.956363,0.044110,0.042074,0.064829,-0.148901,-0.033585,0.060222,0.044056,-0.042061,-0.998143,-0.009053,-0.000968,0.006154,-8.821211,-13.834805,-42.306107,,,,,,,5
1508446748.976373,0.042839,0.039278,0.066178,-0.137185,-0.042091,0.060312,0.042793,-0.039268,-0.998312,-0.006523,-0.002526,0.000326,-8.844193,-13.766451,-42.323597,,,,,,,5
1508446748.996360,0.041738,0.036850,0.067539,-0.118018,-0.059083,0.064716,0.041697,-0.036842,-0.998451,-0.003123,-0.005288,-0.015328,-8.945401,-13.580564,-42.362370,,,,,,,5
1508446749.016397,0.039459,0.035157,0.068990,-0.130798,-0.063313,0.068867,0.039425,-0.035150,-0.998604,-0.008968,-0.010245,-0.031257,-9.032676,-13.477912,-42.376629,,,,,,,5
1508446749.036407,0.037378,0.032899,0.070705,-0.161702,-0.066427,0.085646,0.037349,-0.032893,-0.998761,-0.011196,-0.016484,-0.034793,-9.093545,-13.433470,-42.377720,,,,,,,5
1508446749.056420,0.034646,0.031295,0.072851,-0.196835,-0.061034,0.104545,0.034622,-0.031290,-0.998911,-0.012070,-0.022757,-0.034323,-9.275739,-13.268147,-42.390316,,,,,,,5
1508446749.076406,0.032917,0.028023,0.075225,-0.245846,-0.008936,0.110569,0.032898,-0.028020,-0.999066,-0.011841,-0.013866,-0.015674,-9.414417,-13.156415,-42.394569,,,,,,,5
1508446749.096442,0.032904,0.023288,0.077451,-0.267134,0.032453,0.095518,0.032889,-0.023286,-0.999188,-0.008719,-0.014372,-0.004505,-9.429399,-13.039755,-42.427269,,,,,,,5
1508446749.116454,0.032713,0.018340,0.079231,-0.239403,0.021728,0.071250,0.032702,-0.018339,-0.999297,-0.010469,0.002683,-0.002870,-9.457256,-12.708945,-42.521347,,,,,,,5
1508446749.136440,0.032225,0.013550,0.080773,-0.222362,0.016399,0.069257,0.032217,-0.013550,-0.999389,-0.009024,0.000824,-0.001389,-9.495367,-12.535015,-42.564461,,,,,,,5
1508446749.156457,0.032787,0.008802,0.082393,-0.252204,0.056801,0.074365,0.032780,-0.008801,-0.999424,-0.005940,-0.003070,0.005878,-9.512608,-12.377079,-42.606808,,,,,,,5
1508446749.176487,0.034255,0.003720,0.084054,-0.257549,0.095051,0.075415,0.034248,-0.003720,-0.999406,-0.000602,-0.004138,0.041826,-9.476845,-12.035348,-42.712547,,,,,,,5
1508446749.196498,0.036802,-0.001010,0.085646,-0.216032,0.127945,0.070459,0.036794,0.001010,-0.999322,0.003017,0.002149,0.032556,-9.399923,-11.813397,-42.791435,,,,,,,5
1508446749.216511,0.039483,-0.004727,0.087209,-0.174508,0.134295,0.069742,0.039472,0.004727,-0.999209,0.007021,-0.000881,0.023776,-9.399923,-11.813397,-42.791435,,,,,,,5
1508446749.236510,0.042977,-0.007983,0.088686,-0.174495,0.131088,0.063351,0.042962,0.007983,-0.999045,0.020728,-0.003894,0.013632,-9.196246,-11.464830,-42.930279,,,,,,,5
1508446749.256532,0.045515,-0.011643,0.089897,-0.189365,0.120409,0.045119,0.045496,0.011642,-0.998897,0.022177,-0.006958,0.016048,-9.063326,-11.303014,-43.001396,,,,,,,5
1508446749.276544,0.047562,-0.015373,0.091001,-0.185100,0.090681,0.050456,0.047538,0.015373,-0.998751,0.011422,-0.000068,0.005450,-9.018131,-11.217261,-43.033340,,,,,,,5
1508446749.296538,0.049222,-0.018769,0.092304,-0.184044,0.079025,0.058974,0.049194,0.018767,-0.998613,0.005997,-0.010863,-0.008482,-8.920955,-10.964837,-43.118568,,,,,,,5
1508446749.316566,0.051010,-0.022568,0.093573,-0.195740,0.091734,0.046110,0.050975,0.022566,-0.998445,0.018895,-0.020903,-0.001662,-8.857778,-10.798431,-43.173553,,,,,,,5
1508446749.336577,0.052820,-0.026314,0.094165,-0.182885,0.087326,0.002558,0.052778,0.026311,-0.998260,0.049243,-0.034337,0.018600,-8.804689,-10.668331,-43.216736,,,,,,,5
1508446749.356589,0.056035,-0.028808,0.094260,-0.175396,0.047996,-0.004863,0.055982,0.028804,-0.998016,0.025454,-0.020229,-0.001724,-8.638309,-10.517763,-43.287159,,,,,,,5
1508446749.376601,0.055960,-0.032384,0.095082,-0.186113,-0.035699,0.058869,0.055902,0.032378,-0.997911,-0.009713,-0.012496,-0.016692,-8.621847,-10.401885,-43.318432,,,,,,,5
1508446749.396610,0.052251,-0.036787,0.097393,-0.207542,-0.037553,0.135353,0.052192,0.036779,-0.997960,-0.071830,0.010172,0.011830,-8.670593,-10.224973,-43.350811,,,,,,,5
1508446749.416623,0.052823,-0.040694,0.100906,-0.198085,0.063513,0.178098,0.052755,0.040683,-0.997778,-0.069173,0.023847,0.034049,-8.842809,-9.948483,-43.380348,,,,,,,5
1508446749.436611,0.055824,-0.044078,0.104628,-0.170444,0.189877,0.166709,0.055741,0.044064,-0.997472,-0.010971,0.023365,0.020010,-8.807579,-9.801168,-43.421028,,,,,,,5
1508446749.456645,0.060927,-0.047615,0.107398,-0.200185,0.276772,0.100515,0.060820,0.047597,-0.997013,0.022066,0.012202,0.010975,-8.708675,-9.666649,-43.471104,,,,,,,5
1508446749.476657,0.066496,-0.052113,0.108748,-0.242638,0.258481,0.027749,0.066357,0.052089,-0.996435,0.078663,-0.010295,0.007849,-8.382494,-9.374175,-43.599091,,,,,,,5
1508446749.496668,0.070436,-0.056920,0.109197,-0.236149,0.153210,0.000039,0.070264,0.056889,-0.995905,0.069430,-0.011555,0.004084,-8.191010,-9.159981,-43.680935,,,,,,,5
1508446749.516678,0.072377,-0.061196,0.109662,-0.201001,0.066144,0.018364,0.072178,0.061158,-0.995515,0.033748,-0.006074,0.007188,-8.129614,-9.058376,-43.713581,,,,,,,5
1508446749.536690,0.073219,-0.064523,0.110852,-0.149950,0.026966,0.062410,0.073001,0.064478,-0.995245,0.022229,-0.000636,0.024374,-8.053219,-8.797884,-43.780872,,,,,,,5
1508446749.556701,0.073718,-0.066877,0.112493,-0.109506,0.019547,0.073386,0.073487,0.066827,-0.995055,0.044815,-0.003854,0.024352,-8.046733,-8.669628,-43.807644,,,,,,,5
1508446749.576714,0.074003,-0.068632,0.113776,-0.090275,0.003487,0.040526,0.073762,0.068578,-0.994915,0.046264,-0.005086,0.014614,-8.046733,-8.669628,-43.807644,,,,,,,5
1508446749.596709,0.073817,-0.070653,0.114171,-0.114679,-0.016834,-0.002281,0.073566,0.070594,-0.994789,0.016766,-0.018012,-0.003289,-8.048428,-8.531461,-43.834446,,,,,,,5
1508446749.616735,0.073399,-0.073231,0.114094,-0.134879,-0.021129,-0.018422,0.073137,0.073166,-0.994635,-0.001558,-0.029449,0.000494,-8.070201,-8.379516,-43.859749,,,,,,,5
1508446749.636742,0.073125,-0.076055,0.113871,-0.144464,-0.004138,-0.021682,0.072848,0.075981,-0.994445,-0.001636,-0.031884,0.000167,-8.077146,-8.321202,-43.869572,,,,,,,5
1508446749.656760,0.073432,-0.078043,0.113599,-0.155131,0.057467,-0.025983,0.073142,0.077964,-0.994269,-0.007530,-0.016654,0.016624,-8.077714,-8.181502,-43.895733,,,,,,,5
1508446749.676769,0.075327,-0.081033,0.113162,-0.140240,0.112676,-0.033271,0.075009,0.080944,-0.993892,-0.013974,-0.014080,0.017848,-8.024358,-8.084486,-43.923485,,,,,,,5
1508446749.696780,0.077216,-0.083716,0.112694,-0.114695,0.116922,-0.029863,0.076869,0.083619,-0.993529,-0.011913,0.000762,0.025938,-7.919722,-7.970466,-43.963299,,,,,,,5
1508446749.716792,0.079119,-0.085750,0.112303,-0.088063,0.075493,-0.025415,0.078746,0.085645,-0.993209,0.005986,0.000659,0.020370,-7.812013,-7.848289,-44.004532,,,,,,,5
1508446749.736805,0.079777,-0.086988,0.111969,-0.046519,0.010696,-0.017668,0.079391,0.086878,-0.993051,0.011994,-0.001093,0.012872,-7.770065,-7.800703,-44.020416,,,,,,,5
1508446749.756813,0.080645,-0.087587,0.111933,-0.052933,0.019245,-0.004938,0.080248,0.087475,-0.992929,0.014097,-0.008709,0.006998,-7.759334,-7.770816,-44.027596,,,,,,,5
1508446749.776826,0.082456,-0.088376,0.112047,-0.057212,0.051132,-0.001755,0.082041,0.088261,-0.992713,0.017324,-0.010487,0.023505,-7.693459,-7.715734,-44.048840,,,,,,,5
1508446749.796810,0.085386,-0.088768,0.112300,-0.046570,0.060698,-0.000595,0.084946,0.088651,-0.992434,0.017150,-0.007261,0.015246,-7.577621,-7.710094,-44.069901,,,,,,,5
1508446749.816848,0.087790,-0.089412,0.112510,-0.070008,0.077725,0.003483,0.087327,0.089293,-0.992170,0.009231,-0.008559,0.005414,-7.501553,-7.688184,-44.086739,,,,,,,5
1508446749.836860,0.089887,-0.090789,0.112926,-0.082785,0.045898,0.012936,0.089396,0.090664,-0.991861,0.009297,-0.000790,0.008447,-7.350290,-7.624490,-44.123264,,,,,,,5
1508446749.856869,0.090809,-0.092309,0.113294,-0.064657,0.011874,0.006672,0.090298,0.092178,-0.991640,0.012379,0.000809,0.007845,-7.309960,-7.568398,-44.139618,,,,,,,5
1508446749.876882,0.092354,-0.093062,0.113601,-0.046546,0.007605,0.002559,0.091823,0.092927,-0.991430,0.021549,-0.005296,0.001333,-7.284805,-7.522036,-44.151699,,,,,,,5
1508446749.896895,0.094339,-0.093884,0.113821,-0.059308,0.009713,-0.006063,0.093784,0.093746,-0.991169,0.029949,-0.002163,-0.007351,-7.183255,-7.493865,-44.173122,,,,,,,5
1508446749.916879,0.097403,-0.095107,0.114019,-0.074196,-0.000918,-0.013648,0.096810,0.094963,-0.990762,0.030494,-0.000023,0.005533,-7.043361,-7.423602,-44.207500,,,,,,,5
1508446749.936916,0.097952,-0.096778,0.113842,-0.072037,-0.024325,-0.024295,0.097337,0.096627,-0.990550,0.027769,0.003013,0.011531,-7.001864,-7.389477,-44.219810,,,,,,,5
1508446749.956908,0.098442,-0.098309,0.113465,-0.059217,-0.071109,-0.035937,0.097808,0.098151,-0.990353,0.022889,-0.001181,0.003613,-6.964553,-7.288882,-44.242390,,,,,,,5
1508446749.976925,0.096922,-0.099443,0.112837,-0.054930,-0.111493,-0.040191,0.096293,0.099279,-0.990389,0.018164,-0.002523,0.002291,-6.983121,-7.250645,-44.245743,,,,,,,5
1508446749.996942,0.094787,-0.100307,0.112198,-0.042142,-0.131682,-0.040101,0.094169,0.100139,-0.990507,0.009591,-0.013591,0.011000,-7.037836,-7.217606,-44.242481,,,,,,,5
1508446750.016962,0.091846,-0.100279,0.111430,-0.030428,-0.131688,-0.040004,0.091257,0.100111,-0.990783,-0.015283,-0.012739,0.008849,-7.175169,-7.199714,-44.223331,,,,,,,5
1508446750.036947,0.088620,-0.100508,0.110644,-0.016592,-0.122132,-0.038817,0.088057,0.100339,-0.991049,-0.020140,-0.011640,0.009588,-7.268370,-7.200786,-44.207935,,,,,,,5
1508446750.056983,0.085586,-0.100550,0.109755,-0.003819,-0.097722,-0.042952,0.085050,0.100381,-0.991307,-0.030317,-0.009042,0.011128,-7.429084,-7.216290,-44.178680,,,,,,,5
1508446750.076994,0.084003,-0.100626,0.108805,0.003701,-0.059507,-0.051339,0.083480,0.100456,-0.991433,-0.024245,-0.013496,0.004128,-7.518192,-7.221873,-44.162693,,,,,,,5
1508446750.097000,0.083241,-0.100731,0.107681,-0.005889,-0.019159,-0.058841,0.082723,0.100561,-0.991486,-0.005468,-0.021047,-0.006866,-7.543854,-7.229897,-44.157001,,,,,,,5
1508446750.117010,0.082769,-0.100665,0.106595,-0.026128,-0.015943,-0.053682,0.082256,0.100495,-0.991531,-0.005321,-0.008638,-0.008896,-7.555587,-7.253596,-44.151108,,,,,,,5
1508446750.137029,0.082118,-0.101157,0.105768,-0.016567,-0.036069,-0.035517,0.081606,0.100984,-0.991535,-0.018832,-0.002641,0.004643,-7.570437,-7.237719,-44.151169,,,,,,,5
1508446750.157040,0.080008,-0.101352,0.105179,0.005778,-0.061527,-0.020446,0.079512,0.101179,-0.991686,-0.015075,0.001574,0.008379,-7.619547,-7.233653,-44.143391,,,,,,,5
1508446750.177050,0.077871,-0.100898,0.104720,0.016428,-0.068967,-0.019299,0.077397,0.100727,-0.991899,-0.010853,-0.007221,-0.004378,-7.708144,-7.240461,-44.126888,,,,,,,5
1508446750.197063,0.075918,-0.099795,0.104096,0.012178,-0.047754,-0.028900,0.075468,0.099629,-0.992159,-0.012129,-0.013936,-0.015837,-7.781147,-7.280247,-44.107521,,,,,,,5
1508446750.217068,0.073979,-0.099624,0.103456,-0.014469,-0.007357,-0.023765,0.073545,0.099459,-0.992320,-0.018415,0.004255,0.001338,-7.888368,-7.334491,-44.079483,,,,,,,5
1508446750.237084,0.073649,-0.100233,0.102984,-0.014486,0.014961,-0.020554,0.073213,0.100065,-0.992284,-0.019411,0.006014,0.007237,-7.905308,-7.319746,-44.078896,,,,,,,5
1508446750.257082,0.073274,-0.100342,0.102609,0.005723,0.022419,-0.010799,0.072840,0.100174,-0.992300,-0.012217,-0.001815,0.003058,-7.932486,-7.300296,-44.077240,,,,,,,5
1508446750.277097,0.073560,-0.100020,0.102438,-0.012406,0.052202,-0.002408,0.073127,0.099853,-0.992311,-0.005836,-0.005157,-0.006651,-7.921604,-7.318153,-44.076237,,,,,,,5
1508446750.297112,0.074615,-0.100333,0.102455,-0.021987,0.042653,-0.000365,0.074171,0.100165,-0.992202,0.000842,-0.004767,0.000778,-7.904396,-7.317636,-44.079414,,,,,,,5
1508446750.317107,0.075514,-0.100467,0.102473,-0.003865,0.015011,-0.004495,0.075062,0.100298,-0.992122,0.007335,0.004027,0.012370,-7.844909,-7.302987,-44.092468,,,,,,,5
1508446750.337141,0.075958,-0.100643,0.102260,0.004663,0.019230,-0.011875,0.075501,0.100473,-0.992071,0.003661,0.006689,0.012701,-7.822462,-7.302616,-44.096519,,,,,,,5
1508446750.357141,0.076210,-0.100658,0.102032,0.005733,0.001178,-0.009750,0.075751,0.100488,-0.992050,0.007058,-0.000421,0.011002,-7.797462,-7.295397,-44.102139,,,,,,,5
1508446750.377165,0.076855,-0.100572,0.101867,0.004674,0.000108,-0.012954,0.076391,0.100402,-0.992010,0.015406,0.000001,0.011312,-7.783060,-7.302032,-44.103584,,,,,,,5
1508446750.397162,0.077074,-0.100374,0.101505,0.015336,-0.002047,-0.020321,0.076610,0.100206,-0.992013,0.001438,-0.002061,0.004220,-7.752527,-7.310727,-44.107521,,,,,,,5
1508446750.417186,0.076881,-0.099640,0.101198,0.035551,-0.011577,-0.008449,0.076425,0.099475,-0.992101,0.001838,-0.007281,0.002294,-7.751168,-7.321900,-44.105907,,,,,,,5
1508446750.437198,0.077186,-0.098881,0.100979,0.017447,0.018156,-0.014964,0.076733,0.098720,-0.992152,0.004230,-0.002666,0.006358,-7.749727,-7.380670,-44.096363,,,,,,,5
1508446750.457178,0.077449,-0.098677,0.100564,0.019601,-0.009487,-0.021356,0.076995,0.098517,-0.992152,0.001679,0.001535,0.007228,-7.726591,-7.393201,-44.098328,,,,,,,5
1508446750.477220,0.076510,-0.098140,0.100192,0.047293,-0.061521,-0.011584,0.076068,0.097982,-0.992277,0.000134,0.001658,-0.003298,-7.736477,-7.408264,-44.094063,,,,,,,5
1508446750.497232,0.075418,-0.096949,0.100048,0.050466,-0.050865,-0.001967,0.074992,0.096797,-0.992475,0.005467,-0.004924,-0.007495,-7.801683,-7.464429,-44.073097,,,,,,,5
1508446750.517227,0.075014,-0.095815,0.099956,0.019577,-0.016862,-0.004325,0.074600,0.095668,-0.992614,0.004288,-0.011913,-0.012147,-7.820519,-7.507912,-44.062370,,,,,,,5
1508446750.537253,0.075117,-0.095440,0.099865,-0.014509,0.015026,-0.004583,0.074705,0.095295,-0.992642,0.003099,-0.016285,-0.014377,-7.827669,-7.534331,-44.056595,,,,,,,5
1508446750.557267,0.075099,-0.095918,0.099796,-0.036876,0.023542,-0.002631,0.074684,0.095771,-0.992598,-0.016090,0.001595,0.000563,-7.821869,-7.553562,-44.054333,,,,,,,5
1508446750.577267,0.074661,-0.096766,0.099792,-0.003871,-0.003009,0.005074,0.074243,0.096615,-0.992549,-0.002725,0.006367,0.002772,-7.835717,-7.499276,-44.061142,,,,,,,5
1508446750.597288,0.074384,-0.096547,0.099947,0.019550,-0.015750,0.010582,0.073969,0.096397,-0.992591,0.000143,0.005669,0.001456,-7.844970,-7.496790,-44.059921,,,,,,,5
1508446750.617303,0.075163,-0.096274,0.100193,0.008900,-0.001938,0.008375,0.074744,0.096125,-0.992559,0.018762,-0.002421,0.012838,-7.847936,-7.501706,-44.058556,,,,,,,5
1508446750.637293,0.076195,-0.096060,0.100327,0.007847,0.004411,-0.000147,0.075770,0.095913,-0.992502,0.022771,-0.000942,0.003320,-7.799586,-7.514802,-44.064907,,,,,,,5
1508446750.657311,0.076537,-0.096018,0.100246,-0.007038,-0.007295,-0.008796,0.076110,0.095871,-0.992480,0.018250,-0.002563,-0.005308,-7.776817,-7.517897,-44.068405,,,,,,,5
1508446750.677312,0.076612,-0.095920,0.100124,-0.016610,-0.026410,-0.008890,0.076185,0.095773,-0.992483,0.016054,-0.011133,0.006994,-7.760199,-7.516043,-44.071648,,,,,,,5
1508446750.697320,0.076528,-0.096075,0.100071,-0.000635,-0.033852,-0.008763,0.076101,0.095927,-0.992475,0.027949,-0.001536,0.014020,-7.771716,-7.520272,-44.068901,,,,,,,5
1508446750.717339,0.076702,-0.096101,0.099720,0.012175,-0.034984,-0.027824,0.076274,0.095953,-0.992459,0.048559,0.009546,0.005338,-7.766938,-7.520515,-44.069702,,,,,,,5
1508446750.737368,0.076609,-0.096144,0.098978,-0.009058,-0.072236,-0.052516,0.076181,0.095996,-0.992462,0.034385,-0.014331,-0.036514,-7.729894,-7.527957,-44.074944,,,,,,,5
1508446750.757376,0.074558,-0.096987,0.097930,-0.053762,-0.109388,-0.050784,0.074139,0.096835,-0.992535,-0.013211,-0.021625,-0.015292,-7.778859,-7.520722,-44.067562,,,,,,,5
1508446750.777389,0.071487,-0.097920,0.097312,-0.062324,-0.122029,-0.021051,0.071084,0.097764,-0.992668,-0.025216,-0.014939,-0.000359,-7.845587,-7.491937,-44.060635,,,,,,,5
1508446750.797402,0.068839,-0.099171,0.097159,-0.062331,-0.141117,-0.011483,0.068447,0.099008,-0.992730,-0.026272,0.003455,0.013192,-8.032504,-7.430101,-44.037422,,,,,,,5
1508446750.817400,0.065072,-0.100443,0.096810,-0.059101,-0.171969,-0.023192,0.064698,0.100274,-0.992854,-0.019914,0.000175,0.008204,-8.129775,-7.391129,-44.026127,,,,,,,5
1508446750.837423,0.061812,-0.101763,0.096436,-0.067635,-0.147524,-0.021114,0.061453,0.101588,-0.992927,-0.008550,-0.006785,0.007194,-8.261023,-7.353493,-44.007996,,,,,,,5
1508446750.857436,0.059340,-0.103032,0.095843,-0.054832,-0.110437,-0.046534,0.058991,0.102850,-0.992946,0.034881,-0.006933,0.003032,-8.441359,-7.273880,-43.987000,,,,,,,5
1508446750.877424,0.058027,-0.103910,0.094623,-0.044129,-0.106305,-0.079450,0.057681,0.103723,-0.992932,0.040234,-0.006678,-0.000125,-8.486527,-7.245384,-43.983009,,,,,,,5
1508446750.897457,0.055601,-0.104895,0.092736,-0.043012,-0.117022,-0.106067,0.055267,0.104703,-0.992967,0.040757,-0.007062,-0.002013,-8.486527,-7.245384,-43.983009,,,,,,,5
1508446750.917470,0.053700,-0.105592,0.090467,-0.049356,-0.137266,-0.125300,0.053375,0.105396,-0.992997,0.035431,-0.012409,-0.007919,-8.660884,-7.203041,-43.955971,,,,,,,5
1508446750.937482,0.050227,-0.106929,0.088069,-0.067448,-0.178662,-0.118027,0.049919,0.106725,-0.993035,0.019249,-0.014181,-0.006569,-8.736483,-7.189353,-43.943249,,,,,,,5
1508446750.957491,0.045975,-0.108418,0.085966,-0.067458,-0.211542,-0.103146,0.045689,0.108206,-0.993078,0.013240,-0.009665,-0.002787,-8.809254,-7.169642,-43.931938,,,,,,,5
1508446750.977481,0.041257,-0.109758,0.084001,-0.052545,-0.237033,-0.099848,0.040997,0.109538,-0.993137,0.009006,0.004338,0.008975,-9.071230,-7.112696,-43.887859,,,,,,,5
1508446750.997500,0.036469,-0.110914,0.082024,-0.044006,-0.258304,-0.106182,0.036237,0.110687,-0.993195,0.018649,0.004639,0.010101,-9.249615,-7.076926,-43.856400,,,,,,,5
1508446751.017510,0.031453,-0.112145,0.079783,-0.053554,-0.275347,-0.121180,0.031250,0.111910,-0.993227,0.017166,0.002317,0.003755,-9.355721,-7.067007,-43.835487,,,,,,,5
1508446751.037536,0.026055,-0.113384,0.077444,-0.059915,-0.322089,-0.123397,0.025885,0.113141,-0.993242,0.023035,-0.002729,-0.021666,-9.657462,-7.021051,-43.777393,,,,,,,5
1508446751.057534,0.018638,-0.114817,0.075058,-0.076857,-0.376231,-0.118212,0.018514,0.114565,-0.993243,0.059870,-0.010882,-0.029904,-9.921252,-6.988464,-43.723587,,,,,,,5
1508446751.077538,0.010419,-0.116768,0.072616,-0.110895,-0.407059,-0.129164,0.010348,0.116503,-0.993136,0.080564,-0.010714,-0.025601,-10.079595,-6.965293,-43.691055,,,,,,,5
1508446751.097571,0.005908,-0.119374,0.070026,-0.160853,-0.424165,-0.172178,0.005866,0.119091,-0.992866,0.064996,-0.001186,0.001869,-10.487347,-6.861663,-43.611408,,,,,,,5
1508446751.117584,-0.002054,-0.122995,0.066212,-0.188466,-0.435959,-0.208616,-0.002039,0.122685,-0.992444,0.023096,-0.000462,0.026501,-10.707941,-6.745777,-43.575871,,,,,,,5
1508446751.137592,-0.011632,-0.126637,0.061579,-0.177745,-0.460521,-0.243683,-0.011539,0.126299,-0.991925,0.014697,-0.002413,0.031903,-10.884846,-6.686763,-43.541122,,,,,,,5
1508446751.157592,-0.021891,-0.129659,0.056112,-0.146800,-0.473407,-0.278573,-0.021705,0.129296,-0.991368,-0.002465,-0.010659,0.033193,-11.439555,-6.543481,-43.420521,,,,,,,5
1508446751.177608,-0.032198,-0.132011,0.050326,-0.113779,-0.478758,-0.284693,-0.031912,0.131628,-0.990785,-0.010187,-0.014806,0.034639,-11.725370,-6.506874,-43.349720,,,,,,,5
1508446751.197626,-0.041884,-0.133905,0.044668,-0.099987,-0.424540,-0.271761,-0.041497,0.133506,-0.990179,-0.012199,-0.017371,0.032293,-12.006598,-6.482732,-43.276295,,,,,,,5
1508446751.217639,-0.050138,-0.135606,0.039210,-0.096848,-0.348020,-0.262095,-0.049657,0.135191,-0.989574,-0.015757,-0.015089,0.023724,-12.488673,-6.452369,-43.144199,,,,,,,5
1508446751.237643,-0.056799,-0.137410,0.033821,-0.108594,-0.265166,-0.266388,-0.056233,0.136978,-0.988977,0.000569,0.004288,0.006952,-12.728472,-6.430666,-43.077309,,,,,,,5
1508446751.257659,-0.062094,-0.139453,0.028042,-0.123496,-0.212105,-0.284572,-0.061452,0.139002,-0.988384,0.001928,0.001074,0.002803,-12.728472,-6.430666,-43.077309,,,,,,,5
1508446751.277673,-0.067030,-0.141723,0.022233,-0.136296,-0.205684,-0.272960,-0.066308,0.141249,-0.987751,-0.008475,-0.009657,-0.004330,-13.040838,-6.364580,-42.993607,,,,,,,5
1508446751.297686,-0.072372,-0.144107,0.016781,-0.136304,-0.244934,-0.257019,-0.071559,0.143609,-0.987044,-0.008030,-0.004876,-0.007188,-13.195039,-6.315699,-42.953754,,,,,,,5
1508446751.317681,-0.078741,-0.146189,0.011477,-0.110737,-0.298037,-0.249395,-0.077821,0.145669,-0.986268,-0.001662,-0.007150,0.000138,-13.287018,-6.291647,-42.928925,,,,,,,5
1508446751.337707,-0.083993,-0.148448,0.006435,-0.096855,-0.326775,-0.265273,-0.082972,0.147903,-0.985515,0.031611,0.008042,0.007137,-13.505746,-6.259510,-42.865314,,,,,,,5
1508446751.357705,-0.090268,-0.149934,0.000599,-0.103162,-0.354521,-0.303676,-0.089135,0.149373,-0.984755,0.018227,-0.005956,-0.003419,-13.738120,-6.211916,-42.798340,,,,,,,5
1508446751.377709,-0.098378,-0.151065,-0.005709,-0.107404,-0.386388,-0.303735,-0.097101,0.150491,-0.983831,0.015756,-0.011987,-0.009730,-13.876056,-6.207016,-42.754528,,,,,,,5
1508446751.397739,-0.107076,-0.151281,-0.011953,-0.121238,-0.408670,-0.298541,-0.105651,0.150705,-0.982917,0.001159,-0.015497,0.010841,-14.288864,-6.259126,-42.610722,,,,,,,5
1508446751.417754,-0.116593,-0.152708,-0.018045,-0.117001,-0.433036,-0.278294,-0.114975,0.152116,-0.981652,-0.005951,-0.015351,0.011911,-14.604067,-6.254704,-42.504372,,,,,,,5
1508446751.437761,-0.126562,-0.153910,-0.024000,-0.091414,-0.446912,-0.293000,-0.124732,0.153303,-0.980276,0.006583,-0.000852,0.018270,-14.783012,-6.262669,-42.441292,,,,,,,5
1508446751.457776,-0.136436,-0.154607,-0.030472,-0.071137,-0.437465,-0.322638,-0.134391,0.153992,-0.978890,0.002082,-0.008759,0.009850,-15.300294,-6.291160,-42.253334,,,,,,,5
1508446751.477765,-0.145913,-0.155012,-0.037347,-0.088166,-0.403506,-0.335530,-0.143653,0.154392,-0.977511,0.001716,-0.009785,0.004198,-15.540934,-6.319496,-42.161182,,,,,,,5
1508446751.497795,-0.154823,-0.155915,-0.044561,-0.097740,-0.376988,-0.348366,-0.152335,0.155284,-0.976054,-0.012827,-0.016246,0.009852,-15.768937,-6.353994,-42.071239,,,,,,,5
1508446751.517810,-0.163314,-0.156596,-0.051712,-0.081787,-0.369529,-0.339711,-0.160599,0.155956,-0.974621,-0.028808,-0.007382,0.017177,-16.177876,-6.399471,-41.908772,,,,,,,5
1508446751.537807,-0.172776,-0.156846,-0.059005,-0.065790,-0.373838,-0.353424,-0.169807,0.156204,-0.973019,-0.011665,0.001847,0.019467,-16.380022,-6.434260,-41.824841,,,,,,,5
1508446751.557830,-0.181013,-0.156635,-0.066604,-0.051911,-0.348449,-0.382038,-0.177822,0.155995,-0.971620,0.006054,0.002635,0.009553,-16.611074,-6.482050,-41.726215,,,,,,,5
1508446751.577843,-0.188670,-0.156296,-0.074276,-0.058334,-0.313355,-0.372482,-0.185266,0.155661,-0.970281,-0.015814,-0.008459,0.000067,-16.959272,-6.605643,-41.566460,,,,,,,5
1508446751.597840,-0.196787,-0.155827,-0.081993,-0.069003,-0.302695,-0.362979,-0.193150,0.155197,-0.968817,-0.038432,-0.006469,0.009085,-17.116585,-6.661879,-41.492935,,,,,,,5
1508446751.617863,-0.204061,-0.155755,-0.089161,-0.064783,-0.316414,-0.336336,-0.200194,0.155126,-0.967398,-0.044435,-0.007176,0.007605,-17.350292,-6.746413,-41.382065,,,,,,,5
1508446751.637877,-0.212603,-0.155964,-0.095586,-0.064871,-0.307755,-0.289482,-0.208444,0.155332,-0.965621,-0.031165,0.006029,0.004714,-17.626286,-6.819348,-41.253273,,,,,,,5
1508446751.657889,-0.219414,-0.155590,-0.102176,-0.044575,-0.287734,-0.332954,-0.215028,0.154963,-0.964235,-0.017912,0.002508,-0.000853,-17.824982,-6.857088,-41.161537,,,,,,,5
1508446751.677899,-0.225801,-0.154988,-0.108763,-0.045687,-0.252616,-0.315901,-0.221203,0.154368,-0.962933,-0.029849,-0.005336,-0.000217,-17.967192,-6.918610,-41.089352,,,,,,,5
,,,,,,,,,,,,,,,,42.293413,-71.264134,60.371391,-1.000000,-1.000000,1508446751.647132,5
1508446751.697906,-0.232343,-0.154242,-0.114963,-0.053211,-0.214268,-0.286121,-0.227525,0.153631,-0.961577,-0.051146,-0.005423,0.000395,-18.178856,-7.015187,-40.979729,,,,,,,5
1508446751.717923,-0.239796,-0.153780,-0.120885,-0.051129,-0.224796,-0.256300,-0.234702,0.153175,-0.959923,-0.058191,-0.005256,0.007668,-18.388834,-7.106266,-40.870209,,,,,,,5
1508446751.737908,-0.244717,-0.153537,-0.125640,-0.042699,-0.186418,-0.216806,-0.239432,0.152934,-0.958793,-0.044931,-0.000789,0.017463,-18.544910,-7.145186,-40.792824,,,,,,,5
1508446751.757945,-0.248143,-0.153171,-0.130189,-0.032061,-0.108933,-0.233695,-0.242729,0.152573,-0.958021,-0.048684,0.003570,0.028211,-18.711182,-7.219173,-40.703773,,,,,,,5
1508446751.777950,-0.252825,-0.152400,-0.134943,0.001954,-0.081255,-0.209970,-0.247241,0.151811,-0.956988,-0.056043,0.002562,0.017061,-18.842524,-7.286488,-40.631123,,,,,,,5
1508446751.797965,-0.254968,-0.151090,-0.138480,0.026393,-0.093903,-0.177836,-0.249341,0.150516,-0.956647,-0.060610,0.007809,0.007520,-18.842524,-7.286488,-40.631123,,,,,,,5
1508446751.817978,-0.259313,-0.149617,-0.141666,0.033786,-0.094857,-0.143704,-0.253552,0.149060,-0.955768,-0.042957,-0.000286,0.011035,-19.006939,-7.462185,-40.522514,,,,,,,5
1508446751.837969,-0.261337,-0.148400,-0.143991,0.025215,-0.073520,-0.119270,-0.255533,0.147855,-0.955428,-0.036017,-0.001035,0.017744,-19.059328,-7.538180,-40.483818,,,,,,,5
1508446751.857999,-0.264169,-0.147219,-0.146174,0.034759,-0.058597,-0.102144,-0.258282,0.146688,-0.954868,-0.030490,-0.000768,0.013279,-19.079342,-7.571267,-40.468216,,,,,,,5
1508446751.878013,-0.267610,-0.145879,-0.147973,0.045390,-0.075559,-0.088229,-0.261619,0.145362,-0.954162,-0.026726,0.002389,-0.002976,-19.219082,-7.679156,-40.381676,,,,,,,5
1508446751.898006,-0.270069,-0.144708,-0.149337,0.038965,-0.071242,-0.069113,-0.264009,0.144203,-0.953680,-0.021101,0.001777,0.002096,-19.290913,-7.730473,-40.337608,,,,,,,5
1508446751.918033,-0.272175,-0.143878,-0.150446,0.029349,-0.054194,-0.055338,-0.266050,0.143382,-0.953236,-0.019687,0.003392,0.005681,-19.355377,-7.772041,-40.298717,,,,,,,5
1508446751.938046,-0.274512,-0.143385,-0.151515,0.032515,-0.021250,-0.049964,-0.268296,0.142894,-0.952680,-0.018142,0.006612,0.012662,-19.489395,-7.822863,-40.224224,,,,,,,5
1508446751.958041,-0.275864,-0.142689,-0.152392,0.026090,0.019147,-0.041469,-0.269610,0.142205,-0.952412,-0.020017,0.000953,0.003468,-19.517090,-7.851506,-40.205208,,,,,,,5
1508446751.978066,-0.275489,-0.142136,-0.153129,-0.000564,0.072294,-0.036325,-0.269274,0.141658,-0.952588,-0.018873,-0.003962,0.000287,-19.525486,-7.879836,-40.195591,,,,,,,5
1508446751.998081,-0.274394,-0.142002,-0.154062,-0.011249,0.149842,-0.037420,-0.268236,0.141525,-0.952901,-0.017271,-0.000961,0.025288,-19.454054,-7.915332,-40.223240,,,,,,,5
1508446752.018093,-0.273196,-0.142286,-0.155129,0.005767,0.173208,-0.034068,-0.267083,0.141806,-0.953183,-0.037497,0.005594,0.020398,-19.416130,-7.910753,-40.242462,,,,,,,5
