timestamp(unix),attitude_roll(radians),attitude_pitch(radians),attitude_yaw(radians),rotation_rate_x(radians/s),rotation_rate_y(radians/s),rotation_rate_z(radians/s),gravity_x(G),gravity_y(G),gravity_z(G),user_acc_x(G),user_acc_y(G),user_acc_z(G),magnetic_field_x(microteslas),magnetic_field_y(microteslas),magnetic_field_z(microteslas),latitude(degree),longitude(degree),altitude(meter),speed(m/s),course(degree),timestamp(unix),User Mark
1508446665.338348,0.081588,0.061662,0.019486,0.063285,-0.024450,-0.000124,0.081343,-0.061623,-0.994779,0.001513,0.016991,0.004621,-4.529909,-15.008097,-43.457165,,,,,,,5
,,,,,,,,,,,,,,,,42.293516,-71.264413,58.074623,-1.000000,-1.000000,1508446655.015552,5
,,,,,,,,,,,,,,,,42.293429,-71.264164,58.074623,-1.000000,-1.000000,1508446628.943380,5
,,,,,,,,,,,,,,,,42.293516,-71.264413,58.074623,-1.000000,-1.000000,1508446655.015552,5
1508446665.358359,0.081410,0.062090,0.019436,-0.004867,-0.001048,-0.001734,0.081164,-0.062050,-0.994767,-0.001620,-0.011070,-0.005873,-4.547322,-15.053436,-43.439659,,,,,,,5
1508446665.378358,0.081389,0.061967,0.019391,-0.017641,0.009567,-0.006090,0.081143,-0.061927,-0.994777,-0.006925,-0.004525,0.006679,-4.551277,-15.053616,-43.439186,,,,,,,5
1508446665.398361,0.081759,0.061816,0.019267,-0.003778,0.021272,-0.007008,0.081512,-0.061777,-0.994756,-0.002715,0.002741,0.008352,-4.541137,-15.045765,-43.442966,,,,,,,5
1508446665.418373,0.082216,0.061589,0.019125,-0.008036,0.022333,-0.008107,0.081968,-0.061550,-0.994733,-0.000043,0.003399,-0.000644,-4.525839,-15.043804,-43.445240,,,,,,,5
1508446665.438386,0.082772,0.061358,0.018991,-0.011236,0.029775,-0.007063,0.082522,-0.061319,-0.994701,-0.005358,-0.002234,0.001033,-4.490003,-15.029283,-43.453987,,,,,,,5
1508446665.458398,0.083189,0.061172,0.018950,-0.010183,0.035105,-0.001727,0.082937,-0.061134,-0.994678,-0.007971,-0.000969,0.000903,-4.469159,-15.022308,-43.458546,,,,,,,5
1508446665.478405,0.084007,0.060958,0.018961,-0.012318,0.042546,-0.000674,0.083753,-0.060920,-0.994623,-0.005903,-0.001504,0.001062,-4.455789,-15.017163,-43.461697,,,,,,,5
1508446665.498412,0.084659,0.060791,0.018944,-0.011241,0.025541,-0.002807,0.084402,-0.060754,-0.994578,0.004084,-0.004218,-0.001974,-4.405459,-15.005425,-43.470879,,,,,,,5
,,,,,,,,,,,,,,,,42.293784,-71.265218,58.074623,-1.000000,-1.000000,1508446665.437836,5
,,,,,,,,,,,,,,,,42.293827,-71.265370,58.074623,-1.000000,-1.000000,1508446665.448403,5
1508446665.518445,0.085158,0.060778,0.018847,-0.003778,0.013845,-0.004884,0.084898,-0.060741,-0.994537,0.004488,-0.003560,0.001800,-4.380175,-15.003990,-43.473930,,,,,,,5
1508446665.538447,0.085350,0.060791,0.018759,0.004738,0.007478,-0.001624,0.085089,-0.060754,-0.994519,0.005701,-0.001746,0.003461,-4.373803,-15.002815,-43.474976,,,,,,,5
1508446665.558448,0.085534,0.061004,0.018758,0.000501,-0.006296,0.003675,0.085271,-0.060967,-0.994491,0.009776,-0.003960,0.001357,-4.357990,-15.013671,-43.472816,,,,,,,5
1508446665.578477,0.085771,0.060825,0.018830,-0.003755,-0.016911,0.004696,0.085508,-0.060788,-0.994481,0.005587,0.003033,0.002370,-4.354836,-15.010612,-43.474190,,,,,,,5
1508446665.598481,0.085472,0.060654,0.018967,-0.001629,-0.016905,0.006843,0.085211,-0.060617,-0.994517,0.002588,0.003595,0.002238,-4.354870,-15.004454,-43.476315,,,,,,,5
1508446665.618495,0.084852,0.060730,0.019118,-0.002699,0.000085,0.004718,0.084594,-0.060693,-0.994565,-0.008422,-0.002295,0.002149,-4.381432,-14.996526,-43.476379,,,,,,,5
1508446665.638509,0.084928,0.060623,0.019157,-0.005890,0.015999,-0.001685,0.084670,-0.060586,-0.994565,-0.004333,0.001153,0.003827,-4.388521,-14.996672,-43.475613,,,,,,,5
1508446665.658503,0.085174,0.060494,0.019103,-0.003758,0.018115,-0.003795,0.084915,-0.060457,-0.994552,-0.004440,0.000490,0.003219,-4.386564,-14.992623,-43.477207,,,,,,,5
1508446665.678512,0.085781,0.060470,0.019039,0.000497,0.014938,-0.000568,0.085519,-0.060433,-0.994502,0.004767,-0.000023,0.003459,-4.361895,-14.988004,-43.481281,,,,,,,5
1508446665.698541,0.086297,0.060486,0.019039,0.000499,0.007507,0.000491,0.086032,-0.060449,-0.994457,0.009885,0.000054,0.001125,-4.344489,-14.988952,-43.482700,,,,,,,5
,,,,,,,,,,,,,,,,42.293858,-71.265475,58.074623,-1.000000,-1.000000,1508446665.650810,5
1508446665.718538,0.086862,0.060408,0.019017,-0.002662,-0.005216,0.000480,0.086594,-0.060371,-0.994413,0.009445,0.001090,0.001722,-4.315101,-14.988367,-43.485828,,,,,,,5
1508446665.738551,0.086960,0.060396,0.019003,-0.004787,-0.012650,0.000456,0.086692,-0.060359,-0.994405,0.004052,0.000239,-0.000376,-4.302091,-14.986958,-43.487602,,,,,,,5
,,,,,,,,,,,,,,,,42.293878,-71.265543,58.074623,-1.000000,-1.000000,1508446665.670422,5
1508446665.758558,0.086756,0.060312,0.019009,-0.012239,-0.011587,-0.000669,0.086490,-0.060276,-0.994428,0.000058,-0.002255,0.001401,-4.303675,-14.983950,-43.488480,,,,,,,5
1508446665.778559,0.086562,0.060191,0.019019,-0.010113,-0.004152,-0.000646,0.086297,-0.060154,-0.994452,-0.002435,-0.003750,0.002569,-4.310555,-14.979510,-43.489326,,,,,,,5
,,,,,,,,,,,,,,,,42.293425,-71.264124,59.517208,-1.000000,-1.000000,1508446665.743677,5
1508446665.798590,0.086382,0.060118,0.018995,-0.003722,-0.000976,-0.002720,0.086118,-0.060082,-0.994472,-0.005247,-0.000465,0.004161,-4.324553,-14.974472,-43.489674,,,,,,,5
1508446665.818593,0.086317,0.060137,0.018974,-0.000534,0.003279,-0.000561,0.086054,-0.060101,-0.994476,-0.003748,-0.000766,0.005554,-4.327893,-14.974832,-43.489216,,,,,,,5
1508446665.838618,0.086415,0.060110,0.018965,-0.001601,0.007529,-0.000567,0.086152,-0.060074,-0.994469,-0.005311,-0.003342,0.004220,-4.326382,-14.974625,-43.489441,,,,,,,5
1508446665.858615,0.086530,0.060072,0.018959,-0.003713,0.009677,0.000503,0.086267,-0.060036,-0.994462,0.000358,-0.000434,0.005265,-4.319658,-14.972872,-43.490711,,,,,,,5
1508446665.878639,0.086736,0.060048,0.018949,-0.001580,0.007548,-0.000546,0.086471,-0.060012,-0.994445,0.000885,-0.000276,0.002517,-4.310180,-14.971399,-43.492161,,,,,,,5
1508446665.898643,0.086888,0.060014,0.018931,-0.001578,0.006482,-0.001612,0.086623,-0.059978,-0.994434,0.000047,-0.000569,0.000446,-4.306814,-14.970736,-43.492722,,,,,,,5
1508446665.918641,0.087009,0.060044,0.018908,-0.004770,0.003297,-0.001640,0.086743,-0.060008,-0.994422,0.001331,-0.004400,0.001258,-4.296954,-14.972235,-43.493179,,,,,,,5
1508446665.938671,0.087201,0.060041,0.018887,-0.001577,0.001175,-0.000551,0.086933,-0.060005,-0.994405,0.002376,0.000114,0.000585,-4.291473,-14.971729,-43.493893,,,,,,,5
1508446665.958651,0.087240,0.059976,0.018895,-0.001576,-0.003070,0.000511,0.086973,-0.059940,-0.994406,0.002612,0.000873,0.000219,-4.287522,-14.970707,-43.494640,,,,,,,5
1508446665.978667,0.087362,0.059826,0.018900,0.000552,-0.002008,0.000529,0.087095,-0.059790,-0.994404,0.000185,-0.000208,0.003285,-4.280495,-14.961272,-43.498573,,,,,,,5
1508446665.998703,0.087260,0.059891,0.018904,0.000553,0.000113,-0.000534,0.086993,-0.059855,-0.994409,-0.003542,-0.001180,0.006082,-4.280777,-14.962513,-43.498119,,,,,,,5
1508446666.018694,0.087185,0.060008,0.018898,0.001617,0.002237,-0.000524,0.086918,-0.059972,-0.994409,-0.001042,-0.001415,0.005014,-4.288496,-14.966814,-43.495880,,,,,,,5
1508446666.038728,0.087254,0.060053,0.018892,-0.000486,0.002277,-0.000516,0.086986,-0.060017,-0.994400,0.000584,0.000081,0.002228,-4.286813,-14.971806,-43.494328,,,,,,,5
1508446666.058735,0.087288,0.060174,0.018876,0.000580,0.001214,-0.000508,0.087019,-0.060138,-0.994390,-0.000792,-0.003094,-0.001231,-4.282841,-14.973334,-43.494194,,,,,,,5
1508446666.078733,0.087360,0.060227,0.018866,-0.003678,-0.000908,-0.000544,0.087091,-0.060191,-0.994380,0.001853,-0.001958,-0.000752,-4.282530,-14.978609,-43.492409,,,,,,,5
1508446666.098746,0.087426,0.060226,0.018831,-0.002609,-0.005161,-0.001604,0.087156,-0.060190,-0.994375,0.002733,-0.001288,0.001821,-4.279573,-14.978644,-43.492687,,,,,,,5
1508446666.118742,0.087346,0.060099,0.018748,-0.000471,-0.011547,-0.004785,0.087077,-0.060063,-0.994389,0.001668,0.000981,0.001912,-4.277399,-14.976331,-43.493698,,,,,,,5
1508446666.138760,0.087151,0.060104,0.018664,0.001653,-0.011536,-0.001573,0.086884,-0.060068,-0.994406,0.001526,0.000818,0.003393,-4.281963,-14.975119,-43.493668,,,,,,,5
1508446666.158784,0.087033,0.060127,0.018647,-0.000479,-0.010469,-0.000525,0.086766,-0.060091,-0.994415,0.001933,-0.001845,0.001266,-4.289728,-14.976997,-43.492252,,,,,,,5
1508446666.178800,0.086928,0.060086,0.018631,-0.004718,-0.005132,-0.000536,0.086662,-0.060050,-0.994426,0.000695,-0.001199,0.004818,-4.295205,-14.976293,-43.491955,,,,,,,5
1508446666.198786,0.086985,0.060012,0.018627,-0.003661,0.006557,0.000546,0.086719,-0.059976,-0.994426,-0.002063,0.000314,0.007030,-4.296586,-14.974518,-43.492432,,,,,,,5
1508446666.218817,0.087045,0.059995,0.018686,-0.000474,0.012937,0.002707,0.086779,-0.059959,-0.994422,-0.003389,-0.001991,0.001700,-4.294368,-14.971102,-43.493824,,,,,,,5
1508446666.238833,0.087421,0.060031,0.018726,-0.003667,0.013997,0.001617,0.087152,-0.059994,-0.994387,0.002966,-0.001697,0.003039,-4.278855,-14.972966,-43.494709,,,,,,,5
1508446666.258818,0.087801,0.059889,0.018743,-0.007925,0.020366,-0.000543,0.087531,-0.059853,-0.994362,0.002374,-0.000572,0.002190,-4.272234,-14.971093,-43.496006,,,,,,,5
1508446666.278824,0.088196,0.059477,0.018763,-0.008991,0.015063,0.001573,0.087925,-0.059442,-0.994352,-0.000157,0.001810,0.000379,-4.245141,-14.952475,-43.505062,,,,,,,5
1508446666.298865,0.088342,0.059221,0.018790,-0.004726,0.004434,0.000536,0.088073,-0.059186,-0.994354,-0.000243,0.002118,0.004684,-4.236840,-14.940241,-43.510075,,,,,,,5
1508446666.318873,0.088372,0.059118,0.018791,-0.006853,0.003369,-0.000547,0.088103,-0.059083,-0.994358,-0.001128,-0.000502,0.003925,-4.234815,-14.935573,-43.511875,,,,,,,5
1508446666.338885,0.088591,0.059022,0.018733,-0.000428,-0.003000,-0.003671,0.088321,-0.058988,-0.994344,0.004041,0.000135,0.005727,-4.229232,-14.928478,-43.514854,,,,,,,5
1508446666.358898,0.088533,0.058951,0.018574,0.002782,-0.011522,-0.010039,0.088263,-0.058917,-0.994353,0.002893,0.002353,0.002379,-4.226555,-14.928905,-43.514965,,,,,,,5
1508446666.378901,0.088201,0.059262,0.018475,0.009159,-0.022115,-0.000412,0.087932,-0.059228,-0.994364,-0.000148,-0.004203,0.002741,-4.228994,-14.931978,-43.513676,,,,,,,5
1508446666.398906,0.087948,0.059685,0.018495,0.002772,-0.031664,0.001658,0.087678,-0.059650,-0.994361,0.007659,-0.004895,-0.002923,-4.251230,-14.953027,-43.504280,,,,,,,5
1508446666.418929,0.087866,0.059737,0.018466,-0.011066,-0.025292,-0.001646,0.087596,-0.059701,-0.994365,0.008625,-0.002402,0.001980,-4.257722,-14.961113,-43.500862,,,,,,,5
1508446666.438925,0.087441,0.059446,0.018453,-0.005748,-0.018917,-0.000532,0.087175,-0.059411,-0.994420,-0.002748,0.003747,0.006154,-4.260043,-14.955723,-43.502491,,,,,,,5
1508446666.458941,0.086868,0.059252,0.018470,-0.001492,-0.010425,-0.001556,0.086607,-0.059217,-0.994481,-0.006956,0.003920,0.005437,-4.286468,-14.945003,-43.503582,,,,,,,5
1508446666.478941,0.086644,0.059162,0.018379,-0.002549,-0.010439,-0.005823,0.086384,-0.059128,-0.994506,-0.002430,0.000671,0.002303,-4.302517,-14.938054,-43.504379,,,,,,,5
1508446666.498952,0.086241,0.059028,0.018282,-0.003613,-0.015747,-0.004771,0.085984,-0.058994,-0.994548,-0.003785,0.001239,0.001003,-4.307113,-14.936964,-43.504299,,,,,,,5
1508446666.518977,0.085997,0.059009,0.018235,0.001730,-0.000856,-0.002564,0.085741,-0.058975,-0.994570,-0.002459,-0.002564,0.003253,-4.330540,-14.931761,-43.503761,,,,,,,5
1508446666.538969,0.086007,0.059229,0.018216,0.004920,0.000212,-0.000407,0.085751,-0.059195,-0.994557,-0.001125,-0.005442,0.003773,-4.329683,-14.933193,-43.503357,,,,,,,5
1508446666.558990,0.086016,0.059249,0.018227,-0.003600,0.001283,0.000588,0.085760,-0.059214,-0.994555,-0.003438,-0.005361,0.002047,-4.330134,-14.942630,-43.500069,,,,,,,5
1508446666.579002,0.086126,0.059154,0.018212,-0.013182,0.011900,-0.002677,0.085869,-0.059120,-0.994551,0.001899,-0.002800,0.001478,-4.327601,-14.941426,-43.500732,,,,,,,5
1508446666.599027,0.086420,0.058960,0.018195,-0.007860,0.008718,-0.000506,0.086163,-0.058926,-0.994537,-0.000576,0.000408,0.001754,-4.315739,-14.934750,-43.504204,,,,,,,5
1508446666.619011,0.086496,0.058918,0.018244,0.000658,-0.002960,0.002750,0.086239,-0.058884,-0.994533,0.001820,0.000535,0.002696,-4.310562,-14.929094,-43.506660,,,,,,,5
1508446666.639035,0.086453,0.058854,0.018305,-0.001469,-0.008270,0.002728,0.086196,-0.058820,-0.994540,0.003373,0.001142,0.002994,-4.309353,-14.925353,-43.508064,,,,,,,5
1508446666.659059,0.086350,0.058827,0.018363,0.003884,-0.010386,0.003856,0.086094,-0.058793,-0.994551,0.000698,0.001329,0.005919,-4.315506,-14.923796,-43.507988,,,,,,,5
1508446666.679072,0.086123,0.058830,0.018406,0.001757,-0.008267,0.001711,0.085868,-0.058796,-0.994570,-0.001639,0.002400,0.009585,-4.319284,-14.923882,-43.507584,,,,,,,5
1508446666.699054,0.085951,0.058853,0.018389,0.000695,-0.002966,-0.001488,0.085697,-0.058819,-0.994584,-0.002185,-0.000019,0.003846,-4.331309,-14.923767,-43.506428,,,,,,,5
1508446666.719091,0.085977,0.058767,0.018349,-0.003565,0.006590,-0.003646,0.085723,-0.058733,-0.994586,-0.001204,0.001223,0.002124,-4.332964,-14.922964,-43.506538,,,,,,,5
1508446666.739100,0.086139,0.058601,0.018334,-0.005705,0.017226,-0.000461,0.085885,-0.058568,-0.994582,-0.001839,0.001790,0.002501,-4.330468,-14.919897,-43.507839,,,,,,,5
1508446666.759099,0.086554,0.058580,0.018330,-0.001445,0.015099,-0.000428,0.086298,-0.058546,-0.994548,0.001974,-0.000673,0.004267,-4.313079,-14.912205,-43.512203,,,,,,,5
1508446666.779124,0.087058,0.058622,0.018283,-0.001437,0.003411,-0.001501,0.086799,-0.058588,-0.994502,0.006508,-0.001577,-0.000082,-4.292840,-14.913624,-43.513718,,,,,,,5
1508446666.799128,0.087252,0.058522,0.018206,-0.001427,-0.010405,-0.003641,0.086992,-0.058488,-0.994491,0.006011,0.001100,0.000213,-4.278361,-14.913116,-43.515320,,,,,,,5
1508446666.819129,0.087055,0.058586,0.018184,0.004990,-0.022070,0.001748,0.086796,-0.058552,-0.994504,0.003154,-0.001354,0.000073,-4.281708,-14.911867,-43.515415,,,,,,,5
1508446666.839140,0.086459,0.058916,0.018307,0.008179,-0.032672,0.008154,0.086202,-0.058882,-0.994536,-0.000035,-0.006548,-0.000230,-4.295579,-14.917287,-43.512192,,,,,,,5
1508446666.859157,0.085729,0.059010,0.018425,0.001796,-0.036926,0.005969,0.085475,-0.058976,-0.994593,0.000828,-0.005141,0.002665,-4.319289,-14.929250,-43.505741,,,,,,,5
1508446666.879176,0.085099,0.059033,0.018511,0.000731,-0.027371,0.003838,0.084848,-0.058999,-0.994646,0.000601,0.001748,0.007616,-4.366767,-14.930931,-43.500423,,,,,,,5
1508446666.899189,0.084889,0.059132,0.018593,0.007109,-0.014618,0.006030,0.084638,-0.059098,-0.994658,0.004671,-0.000976,0.005949,-4.382093,-14.930562,-43.499008,,,,,,,5
1508446666.919185,0.084930,0.059237,0.018662,0.000721,-0.007185,0.003853,0.084679,-0.059203,-0.994648,0.008079,-0.000993,0.005375,-4.389017,-14.936325,-43.496334,,,,,,,5
1508446666.939210,0.084754,0.059127,0.018753,-0.003541,-0.006117,0.004884,0.084505,-0.059092,-0.994669,-0.005358,0.001079,0.003336,-4.383354,-14.935041,-43.497345,,,,,,,5
1508446666.959221,0.084326,0.059038,0.018842,-0.001403,-0.016749,0.002764,0.084079,-0.059004,-0.994711,-0.005527,0.001936,-0.000071,-4.406861,-14.928919,-43.497074,,,,,,,5
1508446666.979213,0.083814,0.059013,0.018838,-0.000328,-0.017830,-0.002552,0.083570,-0.058979,-0.994755,-0.005094,0.000400,-0.000942,-4.414714,-14.928211,-43.496517,,,,,,,5
1508446666.999238,0.083205,0.059142,0.018783,0.001831,-0.004024,-0.003567,0.082964,-0.059107,-0.994798,-0.007387,-0.001516,0.005479,-4.449945,-14.930923,-43.491997,,,,,,,5
1508446667.019254,0.083041,0.059248,0.018695,0.003956,0.012964,-0.005667,0.082800,-0.059213,-0.994805,-0.006888,-0.000708,0.005914,-4.460936,-14.936617,-43.488914,,,,,,,5
1508446667.039241,0.083217,0.059344,0.018599,0.002888,0.015092,-0.004609,0.082975,-0.059309,-0.994785,-0.005658,-0.000918,0.003071,-4.461874,-14.939733,-43.487747,,,,,,,5
1508446667.059270,0.083417,0.059348,0.018516,0.001823,0.012972,-0.003555,0.083173,-0.059313,-0.994768,-0.000806,0.000841,0.001803,-4.449080,-14.944820,-43.487316,,,,,,,5
1508446667.079286,0.083546,0.059386,0.018429,0.007151,0.007654,-0.004579,0.083301,-0.059351,-0.994755,-0.002338,0.000849,-0.000957,-4.446640,-14.944489,-43.487679,,,,,,,5
1508446667.099296,0.083547,0.059649,0.018367,0.012475,-0.005085,-0.001351,0.083302,-0.059614,-0.994740,-0.000111,-0.001742,-0.001537,-4.438616,-14.949131,-43.486900,,,,,,,5
1508446667.119293,0.083559,0.060063,0.018356,0.009283,-0.022065,0.002869,0.083312,-0.060027,-0.994714,0.008058,-0.004335,-0.010978,-4.441898,-14.970566,-43.479191,,,,,,,5
1508446667.139319,0.083396,0.060410,0.018458,0.006125,-0.052841,0.010292,0.083147,-0.060373,-0.994707,0.016935,-0.005164,-0.024504,-4.451173,-14.985577,-43.473068,,,,,,,5
1508446667.159329,0.082123,0.060658,0.018700,-0.001308,-0.114429,0.016573,0.081880,-0.060621,-0.994797,0.015471,-0.008471,-0.065750,-4.467184,-14.995081,-43.468151,,,,,,,5
1508446667.179342,0.079258,0.060184,0.019185,-0.044963,-0.150489,0.026833,0.079032,-0.060148,-0.995056,0.015054,-0.017977,-0.081909,-4.506755,-14.999281,-43.462616,,,,,,,5
1508446667.199339,0.076115,0.058470,0.020081,-0.113133,-0.163135,0.045426,0.075912,-0.058437,-0.995401,0.005982,-0.045796,-0.073645,-4.743419,-14.919847,-43.464771,,,,,,,5
1508446667.219362,0.072110,0.055714,0.021445,-0.152530,-0.221481,0.063157,0.071936,-0.055685,-0.995854,0.017160,-0.039301,-0.054180,-4.823822,-14.865339,-43.474594,,,,,,,5
1508446667.239352,0.067061,0.052832,0.023155,-0.142966,-0.252226,0.082378,0.066917,-0.052807,-0.996360,0.030068,-0.000263,0.000907,-5.146928,-14.660013,-43.507256,,,,,,,5
1508446667.259383,0.062606,0.050208,0.025096,-0.111050,-0.245821,0.095423,0.062486,-0.050187,-0.996783,0.017577,0.007386,0.021213,-5.362647,-14.524718,-43.526577,,,,,,,5
1508446667.279394,0.056968,0.048711,0.027298,-0.066331,-0.294662,0.109597,0.056870,-0.048692,-0.997194,0.012329,0.006730,0.024965,-5.485927,-14.474077,-43.528084,,,,,,,5
1508446667.299384,0.051199,0.047491,0.029398,-0.073736,-0.259659,0.091481,0.051119,-0.047473,-0.997564,0.001157,0.004230,0.045507,-5.906891,-14.364491,-43.509289,,,,,,,5
1508446667.319415,0.046988,0.045973,0.031066,-0.075880,-0.184277,0.078744,0.046921,-0.045957,-0.997841,-0.017838,-0.004275,0.035164,-6.079238,-14.305919,-43.504845,,,,,,,5
1508446667.339321,0.042175,0.045359,0.032990,-0.059944,-0.168297,0.094859,0.042119,-0.045344,-0.998083,-0.034261,-0.015722,-0.010904,-6.217331,-14.250171,-43.503632,,,,,,,5
1508446667.359347,0.038757,0.043652,0.035233,-0.117484,-0.157566,0.116752,0.038710,-0.043638,-0.998297,-0.017531,-0.053682,-0.080270,-6.537566,-14.161436,-43.485657,,,,,,,5
1508446667.379358,0.036398,0.041206,0.037698,-0.262320,-0.059785,0.108177,0.036359,-0.041195,-0.998489,0.005816,-0.041630,-0.040115,-6.690888,-14.066679,-43.493092,,,,,,,5
1508446667.399354,0.035872,0.034936,0.039747,-0.328309,-0.015227,0.081048,0.035842,-0.034929,-0.998747,0.007035,-0.025099,-0.009188,-6.726444,-13.938772,-43.528774,,,,,,,5
1508446667.419363,0.034602,0.027606,0.041396,-0.261189,-0.051437,0.065603,0.034581,-0.027602,-0.999021,-0.015539,0.041640,0.039762,-6.790657,-13.509898,-43.653843,,,,,,,5
1508446667.439389,0.033116,0.023820,0.042780,-0.149373,-0.085491,0.065435,0.033101,-0.023818,-0.999168,-0.024037,0.042434,0.017357,-6.885258,-13.244820,-43.720203,,,,,,,5
1508446667.459371,0.031291,0.021565,0.044366,-0.116410,-0.046154,0.079579,0.031279,-0.021564,-0.999278,-0.010985,-0.002362,-0.005025,-6.953489,-13.151922,-43.737446,,,,,,,5
1508446667.479384,0.031335,0.018384,0.045967,-0.194120,0.030349,0.069433,0.031324,-0.018383,-0.999340,0.001375,-0.028309,-0.000187,-7.024797,-12.991662,-43.773933,,,,,,,5
1508446667.499420,0.031861,0.014563,0.047183,-0.261158,0.049410,0.042276,0.031852,-0.014563,-0.999386,-0.012535,-0.028528,0.021313,-7.022655,-12.946711,-43.787590,,,,,,,5
1508446667.519405,0.032606,0.009274,0.047917,-0.264309,0.033406,0.022008,0.032599,-0.009274,-0.999425,-0.025122,-0.015171,0.018758,-6.998776,-12.651029,-43.877747,,,,,,,5
1508446667.539429,0.032537,0.004393,0.048463,-0.244075,0.036570,0.018983,0.032531,-0.004393,-0.999461,-0.020934,-0.003801,0.002864,-6.968598,-12.365486,-43.963867,,,,,,,5
1508446667.559448,0.033337,-0.000473,0.049100,-0.247284,0.037664,0.027475,0.033331,0.000473,-0.999444,-0.015661,-0.014312,-0.025901,-6.971703,-12.152383,-44.022758,,,,,,,5
1508446667.579438,0.033627,-0.005610,0.050033,-0.265392,-0.002640,0.043266,0.033620,0.005610,-0.999419,-0.009114,-0.026957,-0.031358,-6.960324,-12.040671,-44.055244,,,,,,,5
1508446667.599456,0.033031,-0.011146,0.051167,-0.282420,-0.045098,0.050547,0.033023,0.011146,-0.999392,0.010571,-0.035087,-0.033536,-6.986475,-11.675654,-44.149254,,,,,,,5
1508446667.619456,0.032016,-0.016900,0.052530,-0.295218,-0.047171,0.063217,0.032006,0.016899,-0.999345,0.004158,-0.041359,-0.040267,-7.044553,-11.414680,-44.208229,,,,,,,5
1508446667.639475,0.031912,-0.023273,0.053867,-0.338888,0.025049,0.051199,0.031897,0.023271,-0.999220,-0.000586,-0.048830,-0.034990,-7.069890,-11.278036,-44.239243,,,,,,,5
1508446667.659487,0.033147,-0.028970,0.054950,-0.370844,0.102574,0.039282,0.033127,0.028966,-0.999031,-0.013749,-0.032110,-0.001198,-7.083260,-11.043269,-44.296299,,,,,,,5
1508446667.679518,0.035709,-0.036181,0.055907,-0.351686,0.135478,0.034141,0.035678,0.036173,-0.998708,-0.018542,-0.013666,0.017370,-6.983893,-10.628987,-44.413269,,,,,,,5
1508446667.699496,0.038423,-0.042825,0.056691,-0.323979,0.131171,0.021589,0.038378,0.042812,-0.998346,-0.014040,-0.004253,0.032876,-6.899804,-10.390898,-44.482697,,,,,,,5
1508446667.719519,0.040699,-0.049255,0.057233,-0.316503,0.119447,0.012060,0.040639,0.049235,-0.997960,0.004588,-0.004298,0.042501,-6.743162,-9.949777,-44.607399,,,,,,,5
1508446667.739551,0.043042,-0.055592,0.057650,-0.316493,0.113059,0.007796,0.042962,0.055563,-0.997530,0.010215,-0.008596,0.032626,-6.639821,-9.665189,-44.685402,,,,,,,5
1508446667.759538,0.045515,-0.061237,0.058256,-0.294134,0.079092,0.018602,0.045414,0.061199,-0.997092,0.011166,-0.015423,0.023871,-6.592010,-9.524013,-44.722778,,,,,,,5
1508446667.779560,0.046722,-0.066649,0.058953,-0.255791,0.047211,0.021024,0.046601,0.066599,-0.996691,0.013244,-0.010188,0.013247,-6.470861,-9.149829,-44.818489,,,,,,,5
1508446667.799583,0.048268,-0.071191,0.059427,-0.220620,0.049249,0.001086,0.048127,0.071131,-0.996305,0.012863,-0.003901,0.009519,-6.461236,-9.091796,-44.831684,,,,,,,5
1508446667.819566,0.049372,-0.075233,0.059399,-0.193969,0.056598,-0.019984,0.049212,0.075162,-0.995956,0.025525,-0.001950,0.016739,-6.370395,-8.792908,-44.904243,,,,,,,5
1508446667.839578,0.051404,-0.079342,0.059118,-0.195013,0.048070,-0.029581,0.051220,0.079259,-0.995537,0.023198,0.002162,0.017800,-6.307078,-8.577398,-44.954834,,,,,,,5
1508446667.859619,0.052736,-0.083257,0.058771,-0.193973,0.083141,-0.025287,0.052529,0.083161,-0.995151,0.006904,-0.005646,0.019946,-6.218635,-8.439096,-44.993317,,,,,,,5
1508446667.879622,0.055550,-0.087097,0.058377,-0.202487,0.135142,-0.042354,0.055311,0.086987,-0.994673,0.010134,-0.007534,0.021559,-6.133326,-8.266724,-45.037006,,,,,,,5
1508446667.899630,0.059826,-0.090730,0.057489,-0.186486,0.174348,-0.069876,0.059544,0.090605,-0.994105,0.010021,-0.007155,0.040034,-5.909520,-8.066150,-45.103249,,,,,,,5
1508446667.919647,0.064313,-0.094741,0.056016,-0.136386,0.169961,-0.102473,0.063980,0.094600,-0.993457,0.022034,0.012624,0.046924,-5.663349,-7.891658,-45.165657,,,,,,,5
1508446667.939638,0.066923,-0.096852,0.053716,-0.079881,0.122027,-0.130791,0.066559,0.096700,-0.993086,0.024932,0.016413,0.034177,-5.580075,-7.839871,-45.185036,,,,,,,5
1508446667.959650,0.068582,-0.099087,0.050886,-0.134112,0.085831,-0.161079,0.068192,0.098925,-0.992756,0.094467,-0.064684,-0.027462,-5.389202,-7.738603,-45.225639,,,,,,,5
1508446667.979681,0.069466,-0.103627,0.047737,-0.259705,0.032740,-0.172803,0.069038,0.103442,-0.992237,0.092721,-0.095629,-0.031155,-5.296873,-7.589964,-45.261726,,,,,,,5
1508446667.999685,0.067886,-0.109378,0.044561,-0.263858,-0.135151,-0.185741,0.067428,0.109160,-0.991735,0.078476,-0.075926,-0.012568,-5.275547,-7.477600,-45.282913,,,,,,,5
1508446668.019703,0.062186,-0.113440,0.040770,-0.142285,-0.336069,-0.211483,0.061746,0.113197,-0.991652,0.063468,0.072900,0.079482,-5.454377,-7.180170,-45.309856,,,,,,,5
1508446668.039703,0.053259,-0.115063,0.036611,-0.031500,-0.459336,-0.205338,0.052882,0.114809,-0.991979,0.023107,0.067457,0.077321,-5.686724,-7.122481,-45.290394,,,,,,,5
1508446668.059723,0.043196,-0.115052,0.033030,0.026991,-0.484697,-0.158026,0.042897,0.114798,-0.992462,0.006938,0.053476,0.077515,-6.078925,-7.124813,-45.239056,,,,,,,5
1508446668.079736,0.033517,-0.114248,0.030477,0.054575,-0.459043,-0.108801,0.033292,0.114000,-0.992923,-0.038495,0.017043,0.058780,-6.593296,-7.186038,-45.157253,,,,,,,5
1508446668.099735,0.024495,-0.112981,0.028621,0.067288,-0.427082,-0.080988,0.024336,0.112741,-0.993326,-0.072371,-0.001016,0.016108,-6.888685,-7.237517,-45.104908,,,,,,,5
1508446668.119733,0.016494,-0.111878,0.027169,0.045932,-0.360088,-0.065142,0.016391,0.111645,-0.993613,-0.119998,-0.008907,-0.020456,-7.168481,-7.291371,-45.052605,,,,,,,5
1508446668.139742,0.010902,-0.111521,0.025855,0.002200,-0.209211,-0.064325,0.010835,0.111289,-0.993729,-0.113053,-0.002738,-0.043625,-7.610723,-7.358986,-44.968994,,,,,,,5
1508446668.159777,0.008590,-0.111761,0.024636,-0.017055,-0.055136,-0.056914,0.008536,0.111528,-0.993725,-0.085563,0.001082,-0.047047,-7.716405,-7.363470,-44.950249,,,,,,,5
1508446668.179787,0.008545,-0.112238,0.023735,-0.027779,0.034169,-0.038834,0.008492,0.112003,-0.993672,-0.074348,-0.000171,-0.042141,-7.749029,-7.355441,-44.945950,,,,,,,5
1508446668.199801,0.010160,-0.113029,0.023260,-0.045966,0.112885,-0.012306,0.010095,0.112788,-0.993568,-0.059365,-0.005854,-0.023064,-7.682528,-7.325081,-44.962318,,,,,,,5
1508446668.219810,0.013094,-0.114087,0.023350,-0.058811,0.160786,0.013178,0.013009,0.113839,-0.993414,-0.046090,-0.010034,-0.016062,-7.595682,-7.293013,-44.982285,,,,,,,5
1508446668.239820,0.016459,-0.115433,0.023753,-0.073729,0.161878,0.019444,0.016348,0.115177,-0.993210,-0.005896,-0.011387,0.008271,-7.451789,-7.236962,-45.015392,,,,,,,5
1508446668.259831,0.019273,-0.116903,0.024085,-0.072630,0.123604,0.010906,0.019141,0.116637,-0.992990,0.025903,-0.000151,0.029825,-7.283668,-7.151376,-45.056568,,,,,,,5
1508446668.279817,0.023245,-0.118555,0.024378,-0.041706,0.078925,-0.003779,0.023080,0.118277,-0.992712,0.039695,0.003152,0.028769,-7.118662,-7.079090,-45.094341,,,,,,,5
1508446668.299853,0.024231,-0.118836,0.024344,-0.000168,0.034305,0.001854,0.024057,0.118557,-0.992656,0.032431,-0.004848,0.024180,-7.053221,-7.047674,-45.109539,,,,,,,5
1508446668.319864,0.024697,-0.118727,0.024594,0.003007,0.016300,0.017838,0.024521,0.118448,-0.992657,0.007614,-0.026178,0.010190,-7.020688,-7.048490,-45.114487,,,,,,,5
1508446668.339864,0.024812,-0.118933,0.025048,-0.020418,-0.008096,0.025080,0.024634,0.118653,-0.992630,-0.004889,-0.016236,0.003342,-7.014833,-7.045340,-45.115891,,,,,,,5
1508446668.359884,0.024292,-0.119529,0.025652,-0.034258,-0.037808,0.032396,0.024116,0.119245,-0.992572,-0.012108,-0.008634,-0.003659,-7.023165,-7.028673,-45.117191,,,,,,,5
1508446668.379896,0.023751,-0.120170,0.026428,-0.032152,-0.020782,0.040944,0.023577,0.119881,-0.992508,-0.024813,0.002861,-0.013702,-7.059061,-6.995255,-45.116783,,,,,,,5
1508446668.399902,0.022482,-0.120746,0.027181,-0.030048,0.011102,0.046309,0.022316,0.120453,-0.992468,-0.025261,0.000564,-0.021051,-7.149796,-6.954204,-45.108845,,,,,,,5
1508446668.419918,0.023137,-0.121285,0.028085,-0.028987,0.037642,0.041014,0.022965,0.120988,-0.992388,-0.031845,-0.005082,-0.016935,-7.143016,-6.921255,-45.114986,,,,,,,5
1508446668.439914,0.022852,-0.121481,0.028508,-0.043879,0.080071,0.021758,0.022681,0.121183,-0.992371,-0.027000,-0.015714,-0.009735,-7.166010,-6.903780,-45.114014,,,,,,,5
1508446668.459939,0.024953,-0.122545,0.028773,-0.059844,0.116150,0.007812,0.024763,0.122238,-0.992192,-0.005278,-0.011978,0.000752,-7.082901,-6.856931,-45.134281,,,,,,,5
1508446668.479936,0.027543,-0.123576,0.028918,-0.068361,0.127829,0.004556,0.027330,0.123262,-0.991998,-0.001054,-0.007600,0.008233,-7.029747,-6.828432,-45.146908,,,,,,,5
1508446668.499941,0.031313,-0.124858,0.029330,-0.053460,0.106610,0.013181,0.031064,0.124534,-0.991729,0.012652,-0.001166,0.020248,-6.904058,-6.782959,-45.173153,,,,,,,5
1508446668.519971,0.033676,-0.125627,0.029804,-0.028957,0.056693,0.019735,0.033404,0.125297,-0.991557,0.016508,-0.005912,0.017848,-6.687092,-6.703407,-45.217644,,,,,,,5
1508446668.539972,0.034261,-0.126015,0.030254,-0.018291,0.012077,0.021918,0.033982,0.125682,-0.991488,0.023986,-0.009517,0.015658,-6.687092,-6.703407,-45.217644,,,,,,,5
1508446668.559994,0.035479,-0.125857,0.030824,-0.014010,-0.015556,0.017674,0.035191,0.125525,-0.991466,0.018490,-0.010810,0.017009,-6.657153,-6.661819,-45.228207,,,,,,,5
1508446668.580004,0.034987,-0.126122,0.031120,-0.011859,-0.034701,0.011289,0.034702,0.125788,-0.991450,0.005475,-0.001215,0.014765,-6.616394,-6.669887,-45.233002,,,,,,,5
1508446668.600014,0.034008,-0.126536,0.031301,-0.003329,-0.046407,0.007091,0.033729,0.126199,-0.991431,-0.003410,0.004890,0.008414,-6.650059,-6.657620,-45.229870,,,,,,,5
1508446668.620026,0.032664,-0.126359,0.031276,0.004128,-0.030499,0.000776,0.032398,0.126023,-0.991498,-0.012424,-0.001664,-0.006869,-6.707263,-6.644921,-45.223289,,,,,,,5
1508446668.640014,0.030682,-0.125132,0.031095,-0.000150,-0.004988,0.006084,0.030437,0.124805,-0.991714,-0.022549,-0.014393,-0.012772,-6.782270,-6.678662,-45.207130,,,,,,,5
1508446668.660046,0.029983,-0.124738,0.031134,-0.015062,0.014136,0.004911,0.029745,0.124414,-0.991784,-0.021628,-0.013330,-0.011618,-6.825434,-6.704927,-45.196743,,,,,,,5
1508446668.680058,0.029666,-0.124792,0.031054,-0.021447,0.031112,-0.001518,0.029431,0.124468,-0.991787,-0.026319,-0.000994,-0.012318,-6.878793,-6.728381,-45.185165,,,,,,,5
1508446668.700067,0.030706,-0.125290,0.031076,-0.028922,0.068305,0.000578,0.030461,0.124962,-0.991694,-0.025196,-0.004418,-0.015691,-6.853325,-6.713400,-45.191265,,,,,,,5
1508446668.720079,0.032636,-0.126049,0.031116,-0.044914,0.106561,0.001540,0.032371,0.125715,-0.991538,-0.019050,-0.009245,-0.018991,-6.806097,-6.693725,-45.201321,,,,,,,5
1508446668.740091,0.034339,-0.126258,0.031097,-0.061943,0.101253,0.000331,0.034059,0.125923,-0.991455,0.000731,-0.010276,-0.022522,-6.734565,-6.675722,-45.214695,,,,,,,5
1508446668.760098,0.036419,-0.126922,0.031206,-0.088568,0.106593,0.004374,0.036118,0.126582,-0.991298,-0.000474,-0.010065,-0.023518,-6.614801,-6.646289,-45.236710,,,,,,,5
1508446668.780112,0.038643,-0.127807,0.031450,-0.098156,0.108738,0.008556,0.038319,0.127459,-0.991103,0.000103,-0.014300,-0.026643,-6.518515,-6.603815,-45.256897,,,,,,,5
1508446668.800125,0.040990,-0.128577,0.031777,-0.115193,0.104513,0.012671,0.040640,0.128223,-0.990912,0.006357,-0.019947,-0.020257,-6.399357,-6.542037,-45.282871,,,,,,,5
1508446668.820133,0.042756,-0.130500,0.032121,-0.141812,0.102409,0.014579,0.042379,0.130130,-0.990591,-0.007879,-0.006686,-0.004664,-6.303179,-6.481195,-45.305103,,,,,,,5
1508446668.840145,0.044453,-0.133554,0.032525,-0.153532,0.107736,0.017681,0.044042,0.133158,-0.990116,-0.015737,-0.001551,0.003864,-6.268673,-6.424319,-45.317989,,,,,,,5
1508446668.860140,0.045785,-0.137170,0.032872,-0.136497,0.114088,0.014632,0.045339,0.136740,-0.989569,-0.007039,0.013513,0.031042,-6.169935,-6.202310,-45.362446,,,,,,,5
1508446668.880166,0.048041,-0.139598,0.033146,-0.111985,0.106602,0.004181,0.047555,0.139145,-0.989130,-0.004739,0.013885,0.033227,-6.110569,-6.092723,-45.385330,,,,,,,5
1508446668.900174,0.049832,-0.141459,0.033325,-0.083230,0.075795,0.008654,0.049314,0.140988,-0.988782,-0.001081,0.011997,0.031644,-6.038815,-6.016540,-45.405087,,,,,,,5
1508446668.920188,0.051505,-0.143227,0.033765,-0.060872,0.046070,0.017334,0.050956,0.142738,-0.988448,0.020959,0.008416,0.035064,-5.920626,-5.885859,-45.437771,,,,,,,5
1508446668.940198,0.052078,-0.144250,0.034149,-0.048073,0.009937,0.015283,0.051514,0.143751,-0.988272,0.025619,0.006030,0.033499,-5.895570,-5.845718,-45.446209,,,,,,,5
1508446668.960200,0.052549,-0.145474,0.034634,-0.029959,-0.031489,0.018596,0.051970,0.144962,-0.988071,0.021348,0.010891,0.026752,-5.892935,-5.802107,-45.452145,,,,,,,5
1508446668.980220,0.051694,-0.145823,0.035063,-0.009720,-0.052741,0.019811,0.051123,0.145307,-0.988065,0.021478,0.009784,0.027845,-5.904695,-5.746659,-45.457661,,,,,,,5
1508446669.000213,0.051015,-0.146174,0.035448,0.002015,-0.070835,0.011377,0.050449,0.145654,-0.988048,0.016064,0.008246,0.012051,-5.944676,-5.740332,-45.453247,,,,,,,5
1508446669.020241,0.049748,-0.146354,0.035713,0.003096,-0.098461,0.009235,0.049196,0.145832,-0.988085,0.015700,0.007976,0.003222,-5.990827,-5.726213,-45.448971,,,,,,,5
1508446669.040252,0.047706,-0.146583,0.035939,0.008464,-0.107994,0.011425,0.047177,0.146058,-0.988150,-0.005184,0.004790,-0.000955,-6.076202,-5.707185,-45.440029,,,,,,,5
1508446669.060241,0.045526,-0.146085,0.036109,0.029761,-0.101642,0.008412,0.045026,0.145566,-0.988324,-0.000455,-0.010541,-0.014179,-6.158752,-5.710229,-45.428532,,,,,,,5
1508446669.080273,0.043748,-0.145123,0.036213,-0.000067,-0.062325,0.007130,0.043274,0.144614,-0.988541,-0.004029,-0.017188,-0.027724,-6.232157,-5.729798,-45.416054,,,,,,,5
1508446669.100285,0.043370,-0.145757,0.036381,-0.049082,0.006756,0.007843,0.042897,0.145242,-0.988466,-0.039326,-0.014977,-0.030379,-6.303312,-5.762880,-45.402046,,,,,,,5
1508446669.120298,0.043269,-0.146958,0.036264,-0.059719,0.049189,-0.010314,0.042789,0.146430,-0.988295,-0.027332,0.001641,-0.010576,-6.298586,-5.709697,-45.409420,,,,,,,5
1508446669.140306,0.044109,-0.147999,0.035903,-0.045848,0.039572,-0.024048,0.043612,0.147459,-0.988106,-0.008822,0.001878,-0.007942,-6.291922,-5.658980,-45.416695,,,,,,,5
1508446669.160298,0.044664,-0.148837,0.035535,-0.050127,0.042799,-0.013434,0.044156,0.148288,-0.987958,-0.003644,-0.003238,-0.007007,-6.243897,-5.609810,-45.429420,,,,,,,5
1508446669.180309,0.045786,-0.150050,0.035616,-0.054432,0.052444,0.009962,0.045256,0.149488,-0.987727,0.002169,0.003039,0.006847,-6.218773,-5.580199,-45.436512,,,,,,,5
1508446669.200314,0.046973,-0.151250,0.036042,-0.044859,0.039722,0.018550,0.046420,0.150674,-0.987493,0.005628,0.005607,0.013631,-6.180395,-5.536810,-45.447052,,,,,,,5
1508446669.220340,0.047978,-0.152469,0.036434,-0.044852,0.042892,0.013229,0.047403,0.151879,-0.987262,-0.002115,0.005485,0.014010,-6.110575,-5.443474,-45.467766,,,,,,,5
1508446669.240361,0.049041,-0.153424,0.036694,-0.051237,0.054562,0.007861,0.048445,0.152823,-0.987065,-0.004698,0.001336,0.005925,-6.079883,-5.411032,-45.475754,,,,,,,5
1508446669.260373,0.050098,-0.154436,0.036872,-0.055488,0.046058,0.005690,0.049481,0.153822,-0.986859,0.000995,-0.007842,-0.004779,-6.043125,-5.375491,-45.484867,,,,,,,5
1508446669.280384,0.051101,-0.155240,0.037098,-0.056547,0.029070,0.007798,0.050465,0.154618,-0.986685,0.005855,-0.001664,-0.003214,-5.980806,-5.313065,-45.500435,,,,,,,5
1508446669.300393,0.051933,-0.156509,0.037313,-0.052281,0.024809,0.004636,0.051275,0.155871,-0.986446,0.007395,0.005201,0.004634,-5.953388,-5.276977,-45.508228,,,,,,,5
1508446669.320403,0.052704,-0.158170,0.037429,-0.037348,-0.003909,-0.003780,0.052022,0.157511,-0.986146,0.010509,0.013525,0.001847,-5.911243,-5.204051,-45.522118,,,,,,,5
1508446669.340415,0.053017,-0.159175,0.037532,-0.032027,-0.015580,0.000514,0.052322,0.158503,-0.985971,0.010498,0.003469,0.000192,-5.893200,-5.133440,-45.532475,,,,,,,5
1508446669.360412,0.053300,-0.159745,0.037595,-0.039484,0.004598,-0.002726,0.052596,0.159067,-0.985866,0.003617,-0.005625,-0.006886,-5.876721,-5.104859,-45.537819,,,,,,,5
1508446669.380435,0.053232,-0.160218,0.037579,-0.042673,-0.008144,-0.001698,0.052526,0.159533,-0.985794,-0.000493,-0.011935,-0.010116,-5.869971,-5.085729,-45.540829,,,,,,,5
1508446669.400448,0.052503,-0.160797,0.037548,-0.068215,-0.026192,-0.001922,0.051802,0.160105,-0.985740,-0.006545,-0.004526,-0.010461,-5.892220,-5.056050,-45.541260,,,,,,,5
1508446669.420440,0.052090,-0.162255,0.037451,-0.072466,-0.004980,-0.012589,0.051383,0.161544,-0.985527,-0.003669,0.004747,0.006203,-5.916020,-5.014322,-45.542789,,,,,,,5
1508446669.440468,0.052308,-0.163843,0.037136,-0.057563,0.025794,-0.019896,0.051584,0.163111,-0.985258,-0.002176,0.007711,0.011915,-5.922994,-4.967206,-45.547043,,,,,,,5
1508446669.460480,0.052774,-0.165312,0.036759,-0.051183,0.035355,-0.018771,0.052030,0.164560,-0.984994,-0.005567,0.002707,0.010491,-5.886333,-4.866942,-45.562618,,,,,,,5
1508446669.480468,0.053198,-0.166318,0.036533,-0.043748,0.036447,-0.009126,0.052439,0.165552,-0.984806,-0.005213,-0.001505,0.008060,-5.872937,-4.826743,-45.568623,,,,,,,5
1508446669.500501,0.053934,-0.167104,0.036456,-0.050145,0.041777,-0.004916,0.053157,0.166328,-0.984637,-0.000743,-0.004844,0.005938,-5.845298,-4.789993,-45.576054,,,,,,,5
1508446669.520510,0.054771,-0.167771,0.036431,-0.051212,0.044968,-0.003858,0.053975,0.166985,-0.984481,-0.004415,-0.007942,-0.003022,-5.796758,-4.743628,-45.587101,,,,,,,5
1508446669.540523,0.055025,-0.168621,0.036376,-0.049082,0.029046,0.000407,0.054217,0.167823,-0.984325,-0.010028,-0.000663,-0.006321,-5.768423,-4.717874,-45.593369,,,,,,,5
1508446669.560513,0.054933,-0.169449,0.036485,-0.035236,-0.004931,0.007948,0.054119,0.168639,-0.984191,-0.010402,0.000337,-0.005647,-5.771039,-4.692992,-45.595604,,,,,,,5
1508446669.580538,0.054035,-0.170374,0.036659,-0.028855,-0.012354,0.013319,0.053227,0.169550,-0.984083,-0.009022,0.005285,0.010343,-5.811633,-4.636620,-45.596214,,,,,,,5
1508446669.600555,0.054009,-0.171241,0.036915,-0.039517,0.019517,0.012190,0.053193,0.170405,-0.983937,-0.009492,0.004659,0.010091,-5.824706,-4.606657,-45.597584,,,,,,,5
1508446669.620541,0.054606,-0.172182,0.037142,-0.040587,0.044999,0.007942,0.053772,0.171333,-0.983745,-0.007156,-0.000556,0.009624,-5.822392,-4.556090,-45.602962,,,,,,,5
1508446669.640578,0.055475,-0.172956,0.037290,-0.034200,0.053486,0.005871,0.054619,0.172095,-0.983565,-0.004845,0.001779,0.011367,-5.773012,-4.508416,-45.613976,,,,,,,5
1508446669.660588,0.056402,-0.173709,0.037423,-0.027810,0.046050,0.006983,0.055524,0.172837,-0.983384,-0.004956,0.003463,0.010759,-5.741796,-4.485170,-45.620209,,,,,,,5
1508446669.680598,0.057186,-0.174317,0.037620,-0.005442,0.026918,0.007153,0.056289,0.173435,-0.983235,0.001175,0.004559,0.006825,-5.705248,-4.446444,-45.628586,,,,,,,5
1508446669.700589,0.058072,-0.174231,0.037837,-0.001187,0.026925,0.009318,0.057161,0.173350,-0.983200,0.007323,-0.004253,0.001816,-5.666583,-4.434844,-45.634529,,,,,,,5
1508446669.720609,0.059130,-0.174083,0.038136,-0.022494,0.040762,0.013412,0.058203,0.173205,-0.983165,0.004862,-0.010668,-0.006078,-5.631151,-4.440800,-45.638336,,,,,,,5
1508446669.740629,0.060078,-0.174323,0.038473,-0.028877,0.032267,0.013353,0.059132,0.173441,-0.983067,0.005855,-0.011316,-0.011745,-5.598804,-4.436229,-45.642761,,,,,,,5
1508446669.760642,0.060689,-0.174559,0.038745,-0.034182,0.016317,0.007973,0.059730,0.173674,-0.982990,0.004143,-0.003981,-0.003155,-5.552094,-4.419616,-45.650078,,,,,,,5
1508446669.780639,0.060952,-0.175127,0.038897,-0.023522,0.005674,0.003794,0.059982,0.174233,-0.982876,-0.003448,0.003517,0.001858,-5.539021,-4.400235,-45.653538,,,,,,,5
1508446669.800663,0.060853,-0.175458,0.038955,-0.001162,0.003538,0.003977,0.059882,0.174559,-0.982824,-0.002600,0.001817,0.003912,-5.537992,-4.377829,-45.655815,,,,,,,5
1508446669.820674,0.061372,-0.175608,0.039018,-0.006490,0.025836,-0.000309,0.060390,0.174707,-0.982767,0.004902,-0.000192,0.012949,-5.528202,-4.370064,-45.657745,,,,,,,5
1508446669.840685,0.062276,-0.175795,0.039007,-0.010747,0.033264,-0.003532,0.061276,0.174891,-0.982679,0.005145,-0.004054,0.012342,-5.496670,-4.360713,-45.662445,,,,,,,5
1508446669.860684,0.062995,-0.175986,0.038934,-0.009672,0.020510,-0.005663,0.061981,0.175079,-0.982601,0.008957,-0.003158,0.008007,-5.467701,-4.355331,-45.666443,,,,,,,5
1508446669.880709,0.063589,-0.176285,0.038953,-0.006479,0.005652,-0.001388,0.062561,0.175374,-0.982512,0.005707,0.003810,0.002822,-5.421187,-4.341933,-45.673260,,,,,,,5
1508446669.900717,0.063685,-0.176324,0.038973,0.003108,-0.006034,-0.000253,0.062656,0.175412,-0.982499,0.006375,0.000904,0.002153,-5.414218,-4.334702,-45.674770,,,,,,,5
1508446669.920712,0.063517,-0.176176,0.038951,0.006313,-0.020914,-0.002367,0.062491,0.175266,-0.982536,0.010766,-0.001041,0.000343,-5.412320,-4.335481,-45.674923,,,,,,,5
1508446669.940737,0.063222,-0.176061,0.038917,-0.000076,-0.017723,-0.002417,0.062203,0.175153,-0.982574,-0.004693,-0.001142,0.000839,-5.427351,-4.346470,-45.672096,,,,,,,5
1508446669.960723,0.062989,-0.176082,0.038819,-0.003274,0.001389,-0.005624,0.061974,0.175173,-0.982585,-0.005166,-0.002383,0.002879,-5.435127,-4.345726,-45.671242,,,,,,,5
1508446669.980732,0.062881,-0.176024,0.038663,-0.000075,-0.000745,-0.007728,0.061869,0.175116,-0.982602,-0.003016,-0.003897,0.000516,-5.443483,-4.349968,-45.669846,,,,,,,5
1508446670.000771,0.062649,-0.175979,0.038494,0.000995,-0.010306,-0.007727,0.061641,0.175072,-0.982624,0.002965,0.001076,0.001438,-5.448262,-4.352612,-45.669022,,,,,,,5
1508446670.020773,0.062578,-0.175960,0.038430,0.011637,-0.016670,-0.003385,0.061572,0.175053,-0.982632,0.006040,0.001522,0.008358,-5.451552,-4.353786,-45.668514,,,,,,,5
1508446670.040792,0.062532,-0.175869,0.038460,0.012736,-0.012373,0.000910,0.061528,0.174964,-0.982650,0.004421,0.005074,0.011169,-5.454969,-4.359447,-45.667572,,,,,,,5
1508446670.060805,0.062335,-0.175847,0.038417,0.013804,-0.008135,-0.002272,0.061334,0.174942,-0.982666,-0.004479,0.004791,0.006897,-5.459245,-4.362906,-45.666729,,,,,,,5
1508446670.080810,0.061764,-0.175543,0.038282,0.017008,-0.024076,-0.003323,0.060776,0.174642,-0.982754,-0.004944,-0.001318,-0.003299,-5.474796,-4.364933,-45.664669,,,,,,,5
1508446670.100824,0.061055,-0.174997,0.038235,0.013810,-0.033616,0.001967,0.060085,0.174105,-0.982892,-0.000958,-0.008044,-0.008014,-5.503736,-4.384136,-45.659355,,,,,,,5
1508446670.120837,0.060947,-0.174407,0.038204,0.001036,-0.006018,-0.006635,0.059985,0.173524,-0.983001,0.008420,-0.008546,0.006942,-5.533482,-4.419788,-45.652317,,,,,,,5
1508446670.140838,0.060674,-0.174627,0.037854,0.017030,-0.010320,-0.019283,0.059715,0.173741,-0.982979,-0.011329,0.011226,0.016747,-5.522292,-4.429371,-45.652744,,,,,,,5
1508446670.160857,0.059671,-0.174176,0.037331,0.047922,-0.042207,-0.019053,0.058733,0.173297,-0.983117,-0.013430,0.010572,0.011574,-5.544048,-4.434978,-45.649567,,,,,,,5
1508446670.180849,0.058521,-0.173493,0.036982,0.051090,-0.029424,-0.008370,0.057610,0.172624,-0.983302,-0.004631,0.006698,0.000681,-5.611014,-4.472976,-45.637676,,,,,,,5
1508446670.200879,0.058376,-0.172736,0.036812,0.028708,0.003531,-0.005335,0.057474,0.171878,-0.983440,0.006399,-0.004734,-0.017170,-5.628417,-4.499366,-45.632938,,,,,,,5
1508446670.220882,0.058581,-0.172249,0.036756,-0.003240,0.003563,-0.001340,0.057681,0.171398,-0.983512,0.010449,-0.014111,-0.026971,-5.619330,-4.536617,-45.630367,,,,,,,5
1508446670.240878,0.058791,-0.171943,0.036818,-0.025587,-0.016608,-0.001539,0.057891,0.171097,-0.983552,0.001985,-0.002182,-0.009444,-5.610761,-4.543480,-45.630741,,,,,,,5
1508446670.260888,0.058258,-0.172598,0.036735,-0.024512,-0.018752,-0.006856,0.057360,0.171742,-0.983471,-0.005969,0.004787,0.003658,-5.616831,-4.538018,-45.630535,,,,,,,5
1508446670.280911,0.057816,-0.173128,0.036518,-0.002147,-0.013471,-0.011991,0.056920,0.172265,-0.983405,-0.002873,0.012275,0.019492,-5.634401,-4.516679,-45.630486,,,,,,,5
1508446670.300934,0.057485,-0.173463,0.036279,0.026608,-0.030485,-0.012831,0.056591,0.172595,-0.983366,0.003147,-0.000079,0.022016,-5.661037,-4.492490,-45.629578,,,,,,,5
1508446670.320944,0.057018,-0.172769,0.035980,0.034059,-0.020931,-0.013827,0.056139,0.171910,-0.983512,0.003630,-0.006032,0.026709,-5.673790,-4.501237,-45.627132,,,,,,,5
1508446670.340954,0.056948,-0.172083,0.035601,0.033000,-0.002899,-0.022340,0.056077,0.171235,-0.983633,0.006454,-0.009019,0.043188,-5.676176,-4.537834,-45.623211,,,,,,,5
1508446670.360966,0.056549,-0.171136,0.034976,0.060710,-0.027376,-0.030648,0.055693,0.170302,-0.983817,0.011263,0.007890,0.069312,-5.682506,-4.586766,-45.617531,,,,,,,5
1508446670.380977,0.055335,-0.169372,0.034062,0.109737,-0.069950,-0.046246,0.054515,0.168563,-0.984182,0.017781,0.017136,0.081640,-5.705440,-4.639016,-45.609379,,,,,,,5
1508446670.400987,0.053269,-0.166548,0.032783,0.166212,-0.106149,-0.060714,0.052507,0.165779,-0.984764,0.025175,0.025887,0.104942,-5.768414,-4.750938,-45.589935,,,,,,,5
1508446670.421000,0.050902,-0.163541,0.031344,0.227978,-0.130620,-0.062352,0.050202,0.162813,-0.985379,0.007309,0.025344,0.088361,-5.888247,-4.968503,-45.551411,,,,,,,5
1508446670.441009,0.047653,-0.158247,0.029961,0.293989,-0.165669,-0.050122,0.047040,0.157587,-0.986384,-0.012097,0.004263,0.047297,-5.964564,-5.092101,-45.527824,,,,,,,5
1508446670.461019,0.043531,-0.151465,0.028725,0.365339,-0.211366,-0.044243,0.043019,0.150887,-0.987615,-0.001271,0.000694,0.036992,-6.116772,-5.374904,-45.475090,,,,,,,5
1508446670.481032,0.039116,-0.143766,0.027406,0.386657,-0.212482,-0.056845,0.038702,0.143271,-0.988926,0.009195,-0.002723,0.029576,-6.348244,-5.809247,-45.389874,,,,,,,5
1508446670.501037,0.035024,-0.136060,0.025695,0.393066,-0.182811,-0.077000,0.034693,0.135641,-0.990151,-0.006998,0.003046,0.022591,-6.481291,-6.077993,-45.335850,,,,,,,5
1508446670.521052,0.030112,-0.127774,0.023802,0.439922,-0.216813,-0.071316,0.029863,0.127427,-0.991398,-0.023637,0.005981,0.005482,-6.640983,-6.449621,-45.261330,,,,,,,5
1508446670.541065,0.025419,-0.118392,0.022331,0.487815,-0.238024,-0.053900,0.025238,0.118116,-0.992679,-0.025665,0.002200,-0.005017,-6.905367,-6.969832,-45.144497,,,,,,,5
1508446670.561065,0.020965,-0.108556,0.021157,0.485650,-0.195499,-0.045368,0.020840,0.108342,-0.993895,-0.013790,0.002131,-0.021058,-7.057050,-7.309083,-45.067322,,,,,,,5
1508446670.581084,0.017488,-0.099397,0.019878,0.432459,-0.132820,-0.060646,0.017401,0.099234,-0.994912,0.006067,-0.007940,-0.029578,-7.228228,-7.752110,-44.966053,,,,,,,5
1508446670.601096,0.015326,-0.091397,0.018325,0.382420,-0.079737,-0.078055,0.015261,0.091270,-0.995709,0.024366,-0.027732,-0.048816,-7.351218,-8.235478,-44.860058,,,,,,,5
1508446670.621106,0.014749,-0.082823,0.016618,0.322793,-0.047849,-0.082781,0.014698,0.082728,-0.996464,0.029156,-0.056925,-0.064983,-7.387311,-8.492880,-44.806103,,,,,,,5
1508446670.641110,0.013782,-0.077654,0.015021,0.221616,-0.045622,-0.068708,0.013740,0.077576,-0.996892,0.002297,-0.054078,-0.064128,-7.383185,-8.854476,-44.736732,,,,,,,5
1508446670.661105,0.012008,-0.074197,0.014005,0.152384,-0.114519,-0.035260,0.011974,0.074129,-0.997177,-0.027447,-0.004076,-0.075257,-7.438894,-9.091309,-44.679966,,,,,,,5
1508446670.681139,0.008377,-0.072100,0.013574,0.149148,-0.135671,-0.007620,0.008355,0.072038,-0.997367,-0.028451,0.036285,-0.086251,-7.519973,-9.193622,-44.645443,,,,,,,5
1508446670.701139,0.006420,-0.068718,0.013390,0.180005,-0.067723,-0.014767,0.006405,0.068664,-0.997619,-0.021999,0.020371,-0.071793,-7.671190,-9.295698,-44.598553,,,,,,,5
1508446670.721157,0.005906,-0.065143,0.012485,0.172607,-0.003091,-0.064822,0.005893,0.065096,-0.997862,0.032498,-0.049075,0.002775,-7.719318,-9.501079,-44.546940,,,,,,,5
1508446670.741172,0.007419,-0.060556,0.010521,0.101371,0.007377,-0.121833,0.007405,0.060519,-0.998140,0.043559,-0.056811,0.016923,-7.706304,-9.616047,-44.524521,,,,,,,5
1508446670.761181,0.007500,-0.059619,0.007657,0.018365,0.016882,-0.150194,0.007487,0.059584,-0.998195,0.032430,-0.041426,0.042629,-7.607877,-9.802465,-44.500786,,,,,,,5
1508446670.781194,0.007692,-0.059738,0.004665,-0.006135,0.014797,-0.142945,0.007678,0.059702,-0.998187,-0.023043,0.015218,0.053347,-7.550731,-9.840254,-44.502178,,,,,,,5
1508446670.801189,0.006152,-0.059510,0.002459,0.105563,-0.032830,-0.073916,0.006141,0.059475,-0.998211,-0.030799,0.018802,0.055065,-7.527970,-9.862196,-44.501179,,,,,,,5
1508446670.821214,0.005639,-0.055481,0.001877,0.251301,-0.007172,-0.005614,0.005630,0.055452,-0.998445,-0.037277,0.020964,0.046160,-7.592338,-9.949224,-44.470860,,,,,,,5
1508446670.841227,0.006285,-0.050161,0.001997,0.295929,0.109719,0.011878,0.006277,0.050140,-0.998722,-0.021826,0.011444,0.030079,-7.560547,-10.243309,-44.409470,,,,,,,5
1508446670.861236,0.008861,-0.044662,0.001763,0.261919,0.128717,-0.028849,0.008852,0.044647,-0.998964,0.001325,0.008224,0.033952,-7.570264,-10.290402,-44.396923,,,,,,,5
1508446670.881246,0.011312,-0.039854,0.000388,0.266306,0.081762,-0.089538,0.011302,0.039844,-0.999142,0.011052,0.011029,0.040783,-7.395166,-10.653381,-44.340782,,,,,,,5
1508446670.901259,0.011694,-0.034052,-0.002114,0.307953,0.000840,-0.136105,0.011687,0.034046,-0.999352,0.014100,0.013592,0.019875,-7.288212,-10.962423,-44.283131,,,,,,,5
1508446670.921264,0.011099,-0.027739,-0.004959,0.340982,-0.056530,-0.132681,0.011095,0.027735,-0.999554,0.004759,0.010427,-0.006275,-7.272048,-11.188047,-44.229324,,,,,,,5
1508446670.941279,0.009836,-0.020873,-0.007377,0.343069,-0.059629,-0.107112,0.009834,0.020871,-0.999734,0.001061,0.016467,-0.003333,-7.278131,-11.417574,-44.169628,,,,,,,5
1508446670.961276,0.008943,-0.013988,-0.009142,0.345118,-0.029754,-0.069807,0.008942,0.013988,-0.999862,-0.018097,0.001073,-0.017701,-7.313696,-11.895623,-44.037395,,,,,,,5
1508446670.981301,0.007841,-0.006516,-0.010046,0.345021,0.018197,-0.027182,0.007841,0.006516,-0.999948,-0.026228,-0.010605,-0.044257,-7.322223,-12.132884,-43.971199,,,,,,,5
1508446671.001314,0.008646,-0.000026,-0.010316,0.306637,0.052286,-0.006178,0.008646,0.000026,-0.999963,-0.019343,-0.035853,-0.081229,-7.345948,-12.384018,-43.897167,,,,,,,5
1508446671.021324,0.010066,0.004960,-0.010910,0.208817,0.077703,-0.046346,0.010065,-0.004960,-0.999937,0.025289,-0.037139,-0.085466,-7.266741,-12.770910,-43.799393,,,,,,,5
1508446671.041320,0.012438,0.008624,-0.012549,0.074751,0.080785,-0.097493,0.012437,-0.008624,-0.999885,0.020125,-0.033765,-0.073906,-7.201826,-12.892614,-43.774448,,,,,,,5
1508446671.061337,0.013886,0.008965,-0.014503,-0.004042,0.063850,-0.091768,0.013885,-0.008965,-0.999863,0.002289,-0.029579,-0.034652,-7.076197,-13.013638,-43.759125,,,,,,,5
1508446671.081356,0.014929,0.008813,-0.016130,-0.002993,0.043717,-0.076868,0.014928,-0.008813,-0.999850,0.009288,0.019646,0.015536,-6.983145,-13.024591,-43.770813,,,,,,,5
1508446671.101366,0.015821,0.008185,-0.017574,0.037445,0.057530,-0.070135,0.015820,-0.008185,-0.999841,-0.002286,0.025290,0.029504,-6.940757,-13.035787,-43.774223,,,,,,,5
1508446671.121377,0.017462,0.009621,-0.018900,0.095975,0.094705,-0.063236,0.017461,-0.009621,-0.999801,-0.035268,0.018455,0.043136,-6.871018,-13.040041,-43.783955,,,,,,,5
1508446671.141389,0.019791,0.012029,-0.020184,0.130030,0.127621,-0.062930,0.019788,-0.012028,-0.999732,-0.035382,-0.018825,0.018805,-6.737323,-13.167178,-43.766678,,,,,,,5
1508446671.161401,0.022053,0.015395,-0.021621,0.104479,0.167962,-0.073758,0.022048,-0.015394,-0.999638,-0.002838,-0.025896,0.008000,-6.630662,-13.330097,-43.733639,,,,,,,5
1508446671.181410,0.025651,0.017290,-0.023149,0.098088,0.176460,-0.074869,0.025644,-0.017289,-0.999522,0.011221,-0.019225,0.008341,-6.500917,-13.402706,-43.730927,,,,,,,5
1508446671.201422,0.029109,0.019666,-0.024860,0.142848,0.134968,-0.086243,0.029099,-0.019665,-0.999383,0.007949,0.001232,0.001580,-6.291746,-13.532665,-43.721497,,,,,,,5
1508446671.221404,0.030769,0.023409,-0.026688,0.219552,0.038268,-0.082488,0.030756,-0.023406,-0.999253,0.004782,-0.007569,-0.006576,-6.240843,-13.565767,-43.718533,,,,,,,5
1508446671.241442,0.029934,0.029106,-0.028287,0.272837,-0.121040,-0.063004,0.029917,-0.029102,-0.999129,0.009435,-0.011731,0.008391,-6.145010,-13.854275,-43.641563,,,,,,,5
1508446671.261454,0.026863,0.034615,-0.029407,0.273872,-0.151758,-0.037464,0.026844,-0.034608,-0.999040,0.023678,-0.009200,-0.008406,-6.256410,-14.187995,-43.518345,,,,,,,5
1508446671.281464,0.024703,0.039786,-0.030108,0.219516,-0.073085,-0.028271,0.024681,-0.039775,-0.998904,-0.019081,-0.017262,-0.079282,-6.359806,-14.429177,-43.423954,,,,,,,5
1508446671.301475,0.024026,0.042347,-0.030969,0.058749,-0.016771,-0.049785,0.024002,-0.042334,-0.998815,-0.035598,-0.024270,-0.087778,-6.389818,-14.555099,-43.377502,,,,,,,5
1508446671.321472,0.022498,0.041639,-0.032265,-0.129677,0.020401,-0.078996,0.022476,-0.041627,-0.998880,-0.042404,-0.020033,-0.035788,-4.775894,-14.756832,-43.460327,,,,,,,5
1508446671.341497,0.024412,0.038259,-0.033918,-0.165923,0.143617,-0.088785,0.024392,-0.038250,-0.998970,-0.021294,0.003918,0.074593,-4.759338,-14.628108,-43.505634,,,,,,,5
1508446671.361508,0.028453,0.035868,-0.035619,-0.079717,0.211571,-0.085893,0.028431,-0.035860,-0.998952,-0.005009,0.018481,0.098394,-4.676919,-14.563066,-43.536385,,,,,,,5
1508446671.381503,0.032518,0.036025,-0.037011,0.062917,0.202029,-0.059169,0.032491,-0.036017,-0.998823,0.036219,0.050452,0.054075,-4.375970,-14.499924,-43.588715,,,,,,,5
1508446671.401529,0.038213,0.036783,-0.038123,0.149130,0.200979,-0.044616,0.038178,-0.036775,-0.998594,0.035095,0.043199,0.013975,-4.230986,-14.563568,-43.581810,,,,,,,5
1508446671.421536,0.041695,0.039547,-0.039012,0.128902,0.155350,-0.033105,0.041650,-0.039537,-0.998350,0.018897,0.003603,-0.030596,-3.978918,-14.620028,-43.586651,,,,,,,5
1508446671.441551,0.044578,0.041688,-0.039585,0.103336,0.132040,-0.019492,0.044524,-0.041676,-0.998139,-0.001632,-0.002941,-0.009567,-3.802301,-14.752448,-43.557789,,,,,,,5
1508446671.461562,0.046985,0.044072,-0.040090,0.122519,0.105465,-0.021483,0.046922,-0.044058,-0.997926,0.002761,-0.001794,-0.008925,-3.718019,-14.823611,-43.540901,,,,,,,5
1508446671.481572,0.049046,0.046387,-0.040783,0.106571,0.100121,-0.033331,0.048974,-0.046370,-0.997723,0.018455,-0.006120,-0.023487,-3.614012,-14.936024,-43.511230,,,,,,,5
1508446671.501583,0.050875,0.047843,-0.041460,0.051201,0.078932,-0.025286,0.050794,-0.047825,-0.997563,0.035509,-0.005978,-0.048396,-3.497262,-15.040900,-43.484638,,,,,,,5
1508446671.521575,0.052819,0.048164,-0.041850,0.007549,0.025890,-0.011845,0.052734,-0.048146,-0.997447,0.013657,-0.000255,-0.040913,-3.395365,-15.066743,-43.483765,,,,,,,5
1508446671.541604,0.052957,0.048212,-0.041888,0.002210,0.001515,0.004064,0.052871,-0.048193,-0.997438,-0.015258,0.004156,-0.011260,-3.382514,-15.069969,-43.483646,,,,,,,5
1508446671.561617,0.052451,0.048087,-0.041550,0.005357,0.041931,0.019027,0.052367,-0.048068,-0.997470,-0.023375,0.005924,0.020801,-3.373984,-15.072082,-43.483582,,,,,,,5
1508446671.581603,0.053581,0.048196,-0.041319,0.008562,0.067377,0.005231,0.053494,-0.048177,-0.997405,-0.016537,0.008230,0.037399,-3.389189,-15.064627,-43.484978,,,,,,,5
1508446671.601637,0.055181,0.048709,-0.041213,0.057516,0.097113,0.009916,0.055088,-0.048690,-0.997294,-0.004719,0.007644,0.015482,-3.328938,-15.078146,-43.484951,,,,,,,5
1508446671.621649,0.057286,0.049749,-0.041036,0.034086,0.109873,0.009733,0.057184,-0.049729,-0.997124,0.004553,0.003907,-0.014137,-3.229623,-15.125231,-43.476086,,,,,,,5
1508446671.641662,0.059458,0.049781,-0.040952,-0.003150,0.068444,0.004070,0.059349,-0.049761,-0.996996,0.008568,0.002077,-0.001966,-3.162416,-15.138313,-43.476471,,,,,,,5
1508446671.661669,0.060208,0.050243,-0.041017,0.045866,0.030138,-0.006201,0.060096,-0.050222,-0.996928,0.018747,0.009130,0.023891,-3.094174,-15.137096,-43.481804,,,,,,,5
1508446671.681655,0.062154,0.051236,-0.041373,0.070345,0.076843,-0.014482,0.062033,-0.051213,-0.996759,0.012781,0.003881,-0.004446,-3.045586,-15.197783,-43.464066,,,,,,,5
1508446671.701692,0.063790,0.052433,-0.041618,0.052227,0.073703,-0.003986,0.063659,-0.052409,-0.996595,0.007752,-0.001653,-0.006915,-2.952987,-15.227234,-43.460144,,,,,,,5
1508446671.721676,0.064870,0.053215,-0.041676,0.034132,0.045047,0.001166,0.064732,-0.053190,-0.996484,0.012782,-0.003314,0.002466,-2.904165,-15.261714,-43.451344,,,,,,,5
1508446671.741702,0.066669,0.053809,-0.041813,0.023500,0.021679,-0.001068,0.066523,-0.053783,-0.996334,0.024908,0.001324,0.000866,-2.847904,-15.303085,-43.440514,,,,,,,5
1508446671.761724,0.067503,0.054134,-0.041900,0.028838,-0.019739,0.002139,0.067353,-0.054108,-0.996261,0.022796,0.005096,0.007354,-2.790981,-15.322497,-43.437366,,,,,,,5
1508446671.781734,0.067869,0.054572,-0.042000,0.046946,-0.015518,-0.004097,0.067716,-0.054545,-0.996212,0.020129,0.011775,0.011837,-2.731669,-15.326457,-43.439739,,,,,,,5
1508446671.801746,0.068021,0.054866,-0.042338,0.052290,-0.013442,-0.017893,0.067866,-0.054838,-0.996186,-0.002818,0.006743,0.001161,-2.722006,-15.359952,-43.428516,,,,,,,5
1508446671.821746,0.067460,0.055668,-0.042800,0.058679,-0.011325,-0.018904,0.067304,-0.055639,-0.996180,-0.008131,0.007482,-0.000707,-2.731367,-15.384346,-43.419289,,,,,,,5
1508446671.841763,0.067357,0.056568,-0.043257,0.045888,0.018422,-0.020052,0.067198,-0.056538,-0.996136,-0.008299,0.002812,0.001645,-2.756601,-15.418467,-43.405590,,,,,,,5
1508446671.861779,0.067733,0.056909,-0.043714,0.025653,0.031176,-0.021274,0.067572,-0.056878,-0.996092,0.000543,0.003396,0.005476,-2.735061,-15.455222,-43.393875,,,,,,,5
1508446671.881790,0.068372,0.057159,-0.044168,0.021397,0.026925,-0.022377,0.068207,-0.057128,-0.996034,-0.000504,0.004074,0.002672,-2.707702,-15.466086,-43.391727,,,,,,,5
1508446671.901800,0.068569,0.057559,-0.044653,0.032058,-0.000701,-0.022310,0.068402,-0.057527,-0.995998,-0.000805,0.005464,-0.000386,-2.681814,-15.475488,-43.389980,,,,,,,5
1508446671.921812,0.068777,0.057669,-0.045163,0.037385,-0.011325,-0.022274,0.068608,-0.057637,-0.995977,0.005519,0.009617,-0.000757,-2.669025,-15.502404,-43.381161,,,,,,,5
1508446671.941802,0.068874,0.057988,-0.045634,0.029919,-0.003868,-0.018071,0.068704,-0.057956,-0.995952,0.005209,0.002398,-0.006657,-2.658822,-15.510787,-43.378788,,,,,,,5
1508446671.961831,0.068775,0.058440,-0.045921,0.013937,-0.003838,-0.011814,0.068604,-0.058406,-0.995933,-0.005509,-0.003422,-0.007226,-2.647156,-15.524178,-43.374710,,,,,,,5
1508446671.981844,0.067819,0.058777,-0.046159,0.016081,-0.025096,-0.013942,0.067650,-0.058743,-0.995978,-0.007408,0.000195,0.006308,-2.677723,-15.547023,-43.364651,,,,,,,5
1508446672.001828,0.067397,0.059087,-0.046438,0.012871,0.007837,-0.013944,0.067228,-0.059052,-0.995989,-0.004942,0.000230,-0.002913,-2.691524,-15.550982,-43.362377,,,,,,,5
1508446672.021865,0.067255,0.059067,-0.046672,-0.014810,-0.003828,-0.012052,0.067087,-0.059033,-0.995999,-0.008051,-0.004413,-0.011493,-2.701498,-15.566870,-43.356056,,,,,,,5
1508446672.041877,0.066193,0.058300,-0.046675,-0.032862,0.005793,-0.001533,0.066032,-0.058267,-0.996115,-0.016884,0.006647,0.002646,-2.732681,-15.560304,-43.356461,,,,,,,5
1508446672.061887,0.066274,0.057226,-0.046534,-0.021184,0.036627,0.008170,0.066117,-0.057195,-0.996171,0.005187,0.005910,0.011216,-2.766487,-15.496883,-43.377026,,,,,,,5
1508446672.081897,0.067699,0.056809,-0.046363,-0.026510,0.051493,0.004943,0.067538,-0.056779,-0.996100,0.017057,-0.000457,0.012320,-2.734392,-15.477206,-43.386082,,,,,,,5
1508446672.101912,0.069776,0.056256,-0.046440,-0.021142,0.001531,-0.005698,0.069609,-0.056227,-0.995988,0.035722,0.002165,0.007814,-2.652201,-15.462937,-43.396275,,,,,,,5
1508446672.121919,0.070913,0.055411,-0.046864,-0.014692,-0.069696,-0.021670,0.070745,-0.055383,-0.995956,0.020747,0.006463,-0.014481,-2.551312,-15.420106,-43.417557,,,,,,,5
1508446672.141903,0.069415,0.054784,-0.047265,-0.031726,-0.084548,-0.018627,0.069255,-0.054756,-0.996095,0.008107,0.002083,-0.017500,-2.559929,-15.406045,-43.422043,,,,,,,5
1508446672.161929,0.067097,0.054095,-0.047370,-0.032822,-0.079182,-0.002661,0.066948,-0.054069,-0.996290,-0.015663,0.001060,0.012938,-2.669220,-15.363627,-43.430489,,,,,,,5
1508446672.181952,0.065922,0.053743,-0.047168,-0.004133,-0.014343,0.012531,0.065779,-0.053717,-0.996387,-0.018354,0.003073,0.013965,-2.726398,-15.345892,-43.433208,,,,,,,5
1508446672.201962,0.065374,0.053755,-0.046786,-0.005215,0.002672,0.017859,0.065233,-0.053729,-0.996423,-0.018465,0.000247,0.009347,-2.781212,-15.339806,-43.431881,,,,,,,5
1508446672.221965,0.065116,0.053111,-0.046474,-0.031831,0.017534,0.011262,0.064979,-0.053086,-0.996474,-0.009315,0.007309,0.015074,-2.793154,-15.322508,-43.437222,,,,,,,5
1508446672.241985,0.065219,0.052329,-0.046129,-0.024388,0.017548,0.016647,0.065083,-0.052305,-0.996508,-0.010075,0.009336,0.006075,-2.793370,-15.294176,-43.447193,,,,,,,5
1508446672.261994,0.065594,0.051975,-0.045771,-0.018002,0.021794,0.016703,0.065458,-0.051952,-0.996502,-0.017805,0.007762,-0.008457,-2.792644,-15.263708,-43.457951,,,,,,,5
1508446672.282006,0.065919,0.051621,-0.045405,-0.012681,0.023920,0.017813,0.065783,-0.051598,-0.996499,-0.005481,0.003701,0.011453,-2.775101,-15.244596,-43.465778,,,,,,,5
1508446672.302001,0.067075,0.051384,-0.045184,0.000111,0.021762,0.009399,0.066936,-0.051361,-0.996434,0.018513,0.004456,0.020940,-2.755305,-15.230291,-43.472057,,,,,,,5
1508446672.322027,0.068009,0.051337,-0.045150,0.000135,0.006859,-0.000195,0.067867,-0.051315,-0.996374,0.026585,0.003387,-0.000452,-2.721884,-15.227393,-43.475174,,,,,,,5
1508446672.341912,0.068488,0.051193,-0.045262,-0.007292,-0.027147,-0.005605,0.068344,-0.051170,-0.996349,0.011307,-0.000130,-0.011037,-2.666295,-15.222189,-43.480442,,,,,,,5
1508446672.361901,0.067837,0.051020,-0.045272,-0.014754,-0.032432,0.000718,0.067697,-0.050998,-0.996402,-0.003198,-0.002194,-0.010663,-2.675307,-15.215822,-43.482117,,,,,,,5
1508446672.381931,0.066680,0.050641,-0.045139,-0.028603,-0.023922,0.002739,0.066545,-0.050619,-0.996499,-0.014650,-0.001627,0.004418,-2.718982,-15.204284,-43.483444,,,,,,,5
1508446672.401944,0.065563,0.050221,-0.044974,-0.011586,0.001574,0.006093,0.065433,-0.050200,-0.996593,-0.019687,0.000563,0.011898,-2.776299,-15.177876,-43.489052,,,,,,,5
1508446672.421930,0.065546,0.050420,-0.044856,-0.003070,0.018555,0.002982,0.065416,-0.050399,-0.996584,0.003721,-0.002732,0.014895,-2.807007,-15.180439,-43.486187,,,,,,,5
1508446672.441965,0.066048,0.050226,-0.044890,-0.005175,0.000468,-0.005567,0.065917,-0.050205,-0.996561,0.013093,0.003604,0.018854,-2.792737,-15.180352,-43.487133,,,,,,,5
1508446672.461961,0.067002,0.049895,-0.045090,0.016122,-0.005915,-0.006461,0.066868,-0.049874,-0.996514,0.010570,0.007684,0.005548,-2.741459,-15.164931,-43.495777,,,,,,,5
1508446672.481987,0.066881,0.050291,-0.045193,0.019313,-0.014400,-0.002182,0.066747,-0.050269,-0.996503,0.003398,0.002280,0.000928,-2.733988,-15.171884,-43.493820,,,,,,,5
1508446672.501974,0.066557,0.050618,-0.045202,0.004403,-0.012261,-0.000174,0.066423,-0.050596,-0.996508,-0.001115,-0.005816,-0.001661,-2.744445,-15.191217,-43.486412,,,,,,,5
1508446672.522003,0.066501,0.050732,-0.045240,-0.003055,0.005796,-0.002351,0.066366,-0.050710,-0.996506,-0.000448,-0.003031,-0.001388,-2.753233,-15.196541,-43.483997,,,,,,,5
1508446672.542019,0.066660,0.050637,-0.045302,-0.006251,0.007922,-0.002376,0.066525,-0.050615,-0.996500,-0.000088,-0.000380,-0.008993,-2.748082,-15.197502,-43.483986,,,,,,,5
1508446672.562030,0.066434,0.050443,-0.045291,-0.012634,-0.012248,0.000750,0.066301,-0.050422,-0.996525,-0.006807,-0.001321,-0.012691,-2.750255,-15.191593,-43.485916,,,,,,,5
1508446672.582042,0.065826,0.049894,-0.045181,-0.014761,-0.030296,0.003913,0.065697,-0.049874,-0.996592,0.000252,0.006417,0.017375,-2.776093,-15.170889,-43.491501,,,,,,,5
1508446672.602030,0.065335,0.049617,-0.045099,0.002268,-0.015435,0.003000,0.065208,-0.049597,-0.996638,-0.001503,0.008597,0.024028,-2.794948,-15.157290,-43.495033,,,,,,,5
1508446672.622062,0.065341,0.049634,-0.045107,0.009720,0.004727,-0.002247,0.065214,-0.049613,-0.996637,-0.000745,0.007576,0.015116,-2.805284,-15.146023,-43.498291,,,,,,,5
1508446672.642073,0.065510,0.049715,-0.045180,0.011850,0.004723,-0.003294,0.065383,-0.049695,-0.996622,0.003190,0.001157,0.003366,-2.799934,-15.152738,-43.496300,,,,,,,5
1508446672.662072,0.065562,0.050119,-0.045244,0.011849,-0.001639,-0.000104,0.065432,-0.050098,-0.996599,-0.000979,-0.006176,-0.004653,-2.795202,-15.154466,-43.496002,,,,,,,5
1508446672.682097,0.065503,0.050434,-0.045224,-0.005186,-0.000568,-0.000244,0.065373,-0.050413,-0.996587,0.002437,-0.005648,-0.001018,-2.796802,-15.181906,-43.486328,,,,,,,5
1508446672.702107,0.065609,0.050342,-0.045242,-0.013704,0.000499,-0.000313,0.065479,-0.050321,-0.996584,0.001675,-0.001910,0.001269,-2.792978,-15.187962,-43.484459,,,,,,,5
1508446672.722104,0.065641,0.049998,-0.045198,-0.006255,-0.007987,0.004001,0.065512,-0.049978,-0.996599,0.002329,0.004018,-0.001722,-2.788344,-15.174114,-43.489594,,,,,,,5
1508446672.742127,0.065376,0.049828,-0.045110,0.005462,-0.015433,0.003027,0.065248,-0.049807,-0.996625,-0.000398,0.005023,-0.002032,-2.794528,-15.161721,-43.493515,,,,,,,5
1508446672.762140,0.064782,0.049741,-0.045071,0.004409,-0.032437,0.000876,0.064656,-0.049720,-0.996668,-0.002538,0.004234,0.004237,-2.807689,-15.156366,-43.494534,,,,,,,5
1508446672.782129,0.064013,0.049753,-0.045106,0.009733,-0.020770,-0.003330,0.063890,-0.049732,-0.996717,-0.005479,0.002857,0.007200,-2.852511,-15.155669,-43.491859,,,,,,,5
1508446672.802161,0.063726,0.049888,-0.045243,0.005471,0.000463,-0.007608,0.063603,-0.049867,-0.996729,-0.008489,0.000856,0.007608,-2.865304,-15.159838,-43.489567,,,,,,,5
1508446672.822170,0.063415,0.050088,-0.045350,-0.000926,0.011095,-0.005524,0.063293,-0.050068,-0.996738,-0.007781,-0.004300,0.000294,-2.880484,-15.167995,-43.485722,,,,,,,5
1508446672.842182,0.063572,0.050093,-0.045352,-0.004135,0.020680,0.000846,0.063450,-0.050072,-0.996728,-0.008594,-0.004539,-0.002189,-2.878151,-15.170052,-43.485157,,,,,,,5
1508446672.862173,0.064060,0.050021,-0.045300,-0.010529,0.024940,0.002926,0.063936,-0.050000,-0.996701,-0.001268,-0.002338,-0.001087,-2.867660,-15.172072,-43.485142,,,,,,,5
1508446672.882199,0.065015,0.049603,-0.045235,-0.020115,0.030259,0.002851,0.064890,-0.049583,-0.996660,0.011465,0.005164,0.009508,-2.833688,-15.158628,-43.492062,,,,,,,5
1508446672.902214,0.065540,0.049320,-0.045277,0.002267,0.005793,-0.003372,0.065414,-0.049300,-0.996640,0.008210,0.006682,0.013180,-2.805315,-15.143983,-43.499001,,,,,,,5
1508446672.922213,0.065573,0.049500,-0.045334,0.018240,-0.005893,-0.001119,0.065446,-0.049480,-0.996629,0.004317,0.005351,0.007020,-2.788312,-15.138519,-43.501995,,,,,,,5
1508446672.942238,0.065380,0.049902,-0.045312,0.004392,-0.011178,0.004086,0.065252,-0.049881,-0.996621,0.000254,-0.007522,-0.003928,-2.796372,-15.155563,-43.495544,,,,,,,5
1508446672.962247,0.065332,0.049931,-0.045184,-0.007331,0.001587,0.007193,0.065205,-0.049911,-0.996623,0.001080,-0.005830,-0.004247,-2.802959,-15.162013,-43.492874,,,,,,,5
1508446672.982258,0.065228,0.049743,-0.044908,-0.008415,0.002687,0.017833,0.065101,-0.049723,-0.996639,-0.004127,0.001886,-0.004566,-2.808806,-15.158247,-43.493809,,,,,,,5
1508446673.002270,0.065368,0.049470,-0.044555,-0.003097,0.019674,0.015760,0.065242,-0.049450,-0.996643,-0.000743,0.006359,0.014710,-2.812745,-15.146730,-43.497566,,,,,,,5
1508446673.022271,0.066148,0.049386,-0.044360,0.005437,0.018576,0.006247,0.066019,-0.049366,-0.996597,0.014655,0.006366,0.015044,-2.801343,-15.139311,-43.500885,,,,,,,5
1508446673.042290,0.067137,0.049393,-0.044558,0.014075,-0.012273,-0.012859,0.067004,-0.049373,-0.996530,0.020123,0.004558,0.004587,-2.750616,-15.134788,-43.505692,,,,,,,5
1508446673.062303,0.066659,0.049734,-0.044824,0.025798,-0.045198,-0.009593,0.066527,-0.049713,-0.996545,0.000749,0.000199,-0.001028,-2.741197,-15.147635,-43.501820,,,,,,,5
1508446673.082295,0.065666,0.050458,-0.044888,0.007668,-0.023903,0.001986,0.065536,-0.050436,-0.996575,-0.009643,-0.010156,-0.004264,-2.749859,-15.153263,-43.499310,,,,,,,5
1508446673.102323,0.065042,0.050582,-0.044710,-0.021102,-0.003679,0.009217,0.064913,-0.050560,-0.996609,-0.008059,-0.006569,-0.000522,-2.811042,-15.191481,-43.482067,,,,,,,5
1508446673.122336,0.064852,0.050082,-0.044571,-0.017893,-0.003711,0.000726,0.064725,-0.050061,-0.996647,-0.001447,0.004925,0.004749,-2.828181,-15.185306,-43.483112,,,,,,,5
1508446673.142345,0.064335,0.049593,-0.044637,0.003416,-0.013306,-0.005494,0.064211,-0.049573,-0.996704,-0.008654,0.005673,0.010925,-2.843537,-15.149881,-43.494465,,,,,,,5
1508446673.162344,0.064081,0.049775,-0.044810,0.016192,-0.001639,-0.008574,0.063958,-0.049754,-0.996712,-0.006325,0.004436,0.010597,-2.856719,-15.151291,-43.493107,,,,,,,5
1508446673.182369,0.064281,0.049940,-0.044990,0.011928,0.004742,-0.007539,0.064156,-0.049920,-0.996691,0.005454,0.001534,0.007509,-2.858295,-15.161358,-43.489498,,,,,,,5
1508446673.202372,0.064499,0.050029,-0.045117,0.001273,0.003701,-0.003369,0.064374,-0.050008,-0.996672,0.006610,-0.000270,0.006346,-2.848913,-15.166424,-43.488350,,,,,,,5
1508446673.222372,0.064750,0.050024,-0.045130,-0.007255,0.010095,0.000824,0.064623,-0.050003,-0.996656,0.003416,-0.004486,-0.006686,-2.833581,-15.170226,-43.488022,,,,,,,5
1508446673.242401,0.064758,0.049799,-0.045040,-0.013599,0.001632,0.005034,0.064632,-0.049778,-0.996667,-0.002636,0.002812,0.005578,-2.827756,-15.162687,-43.491032,,,,,,,5
1508446673.262411,0.064680,0.049695,-0.045040,0.007708,-0.002650,-0.001181,0.064555,-0.049675,-0.996677,-0.003291,0.005073,0.013782,-2.830187,-15.154823,-43.493610,,,,,,,5
1508446673.282421,0.064530,0.049790,-0.045130,0.011978,-0.010103,-0.005411,0.064406,-0.049769,-0.996682,-0.001219,0.006526,0.001595,-2.835577,-15.151825,-43.494308,,,,,,,5
1508446673.302433,0.064229,0.049761,-0.045198,0.002388,-0.011146,-0.001232,0.064105,-0.049740,-0.996703,-0.000964,0.002774,0.007399,-2.847959,-15.158249,-43.491261,,,,,,,5
1508446673.322439,0.064141,0.049855,-0.045176,0.008764,0.001611,0.002025,0.064017,-0.049834,-0.996704,-0.000480,0.000884,0.007293,-2.853670,-15.158693,-43.490730,,,,,,,5
1508446673.342453,0.064231,0.049891,-0.045151,-0.002949,0.010108,-0.000195,0.064107,-0.049870,-0.996696,-0.003300,0.000035,0.003029,-2.854290,-15.161648,-43.489662,,,,,,,5
1508446673.362466,0.064325,0.049896,-0.045127,-0.000816,0.004795,-0.000181,0.064201,-0.049876,-0.996690,0.002449,-0.000097,0.006089,-2.851302,-15.161796,-43.489803,,,,,,,5
1508446673.382476,0.064544,0.050028,-0.045117,0.009827,0.009043,0.000975,0.064418,-0.050007,-0.996669,0.004124,0.000782,0.001461,-2.845874,-15.163925,-43.489418,,,,,,,5
1508446673.402486,0.064965,0.050134,-0.045119,0.001328,0.002685,0.000916,0.064837,-0.050113,-0.996637,0.007032,0.000232,0.000024,-2.828871,-15.171125,-43.488018,,,,,,,5
1508446673.422498,0.065027,0.050115,-0.045093,0.004531,-0.021741,0.003054,0.064899,-0.050094,-0.996634,0.008099,0.002319,0.004568,-2.820557,-15.172149,-43.488201,,,,,,,5
1508446673.442498,0.064807,0.050199,-0.045050,0.017310,-0.029182,0.003154,0.064680,-0.050178,-0.996644,0.003847,0.002998,0.006974,-2.825139,-15.173132,-43.487556,,,,,,,5
1508446673.462518,0.064173,0.050404,-0.045033,0.003472,-0.028120,0.000911,0.064047,-0.050383,-0.996674,-0.000250,0.000670,0.003144,-2.842500,-15.181183,-43.483616,,,,,,,5
1508446673.482532,0.063841,0.050283,-0.044978,-0.009323,0.004822,0.001895,0.063717,-0.050262,-0.996702,-0.005840,-0.000627,0.003675,-2.863351,-15.182498,-43.481792,,,,,,,5
1508446673.502542,0.063713,0.050217,-0.044898,-0.000816,0.019696,0.004106,0.063590,-0.050196,-0.996713,-0.005942,0.000117,0.003412,-2.876548,-15.174767,-43.483616,,,,,,,5
1508446673.522525,0.064000,0.050274,-0.044831,0.004511,0.015440,0.003082,0.063875,-0.050252,-0.996692,-0.004168,0.000616,-0.000653,-2.873526,-15.174784,-43.483814,,,,,,,5
1508446673.542538,0.064223,0.050302,-0.044872,0.000268,0.011172,-0.004389,0.064098,-0.050281,-0.996676,0.002278,-0.001355,-0.000364,-2.860524,-15.176797,-43.483967,,,,,,,5
1508446673.562574,0.064254,0.050280,-0.044986,0.000281,-0.010078,-0.005470,0.064128,-0.050259,-0.996675,0.004063,0.001873,0.001390,-2.853976,-15.178593,-43.483772,,,,,,,5
1508446673.582571,0.064207,0.050140,-0.045042,-0.000792,-0.005816,-0.002282,0.064082,-0.050119,-0.996685,0.005010,0.006418,0.013226,-2.851449,-15.172556,-43.486042,,,,,,,5
1508446673.602596,0.064055,0.050234,-0.045033,0.014099,0.009063,0.002112,0.063931,-0.050213,-0.996690,-0.010021,-0.000843,-0.001906,-2.853324,-15.172307,-43.486008,,,,,,,5
1508446673.622607,0.064142,0.050539,-0.044945,0.003446,0.017570,0.003095,0.064016,-0.050517,-0.996669,-0.010687,-0.005055,-0.005360,-2.855349,-15.181816,-43.482555,,,,,,,5
1508446673.642616,0.064340,0.050576,-0.044904,-0.011460,0.021823,0.001910,0.064214,-0.050555,-0.996655,-0.008229,-0.008619,0.006405,-2.858855,-15.194665,-43.477837,,,,,,,5
1508446673.662628,0.065031,0.050438,-0.044860,0.000237,0.047317,0.003091,0.064903,-0.050417,-0.996617,-0.000739,0.005755,0.000584,-2.830627,-15.189281,-43.481567,,,,,,,5
1508446673.682641,0.065991,0.050375,-0.044789,-0.000827,0.045193,0.003081,0.065859,-0.050354,-0.996558,0.000456,0.003463,-0.002496,-2.800399,-15.184143,-43.485313,,,,,,,5
1508446673.702649,0.066852,0.050289,-0.044740,0.000248,0.031376,0.000950,0.066718,-0.050267,-0.996505,0.006601,0.003545,-0.000169,-2.756773,-15.176691,-43.490704,,,,,,,5
1508446673.722662,0.067465,0.050332,-0.044677,-0.005092,0.027149,0.006249,0.067328,-0.050311,-0.996462,0.003061,-0.001722,-0.005247,-2.725725,-15.177973,-43.492214,,,,,,,5
1508446673.742658,0.068094,0.050023,-0.044404,-0.031731,0.042061,0.013494,0.067957,-0.050002,-0.996435,-0.003702,-0.004487,0.003057,-2.697574,-15.165673,-43.498260,,,,,,,5
1508446673.762657,0.068778,0.049549,-0.044222,-0.016801,0.029272,0.004024,0.068639,-0.049528,-0.996411,-0.000692,-0.004290,0.012616,-2.677953,-15.150459,-43.504776,,,,,,,5
1508446673.782694,0.069623,0.049383,-0.044230,-0.004008,0.022867,-0.003328,0.069482,-0.049363,-0.996361,0.010596,0.000382,0.022484,-2.659835,-15.138852,-43.509926,,,,,,,5
1508446673.802702,0.070256,0.049217,-0.044383,-0.009310,-0.001581,-0.008714,0.070113,-0.049197,-0.996325,0.015596,0.000765,-0.003003,-2.619457,-15.132687,-43.514523,,,,,,,5
1508446673.822713,0.070455,0.049101,-0.044511,-0.006117,-0.018559,-0.003377,0.070312,-0.049081,-0.996317,0.007432,-0.002478,0.003443,-2.589760,-15.124119,-43.519276,,,,,,,5
1508446673.842727,0.070393,0.049097,-0.044603,-0.014633,-0.010066,-0.006635,0.070250,-0.049077,-0.996321,0.005418,-0.003382,0.002135,-2.594243,-15.123677,-43.519161,,,,,,,5
1508446673.862725,0.071216,0.048606,-0.044913,-0.024207,-0.013287,-0.019471,0.071071,-0.048587,-0.996287,0.014134,0.002261,0.011622,-2.564392,-15.111943,-43.525009,,,,,,,5
1508446673.882747,0.071346,0.047995,-0.045444,-0.031638,-0.016510,-0.031247,0.071204,-0.047977,-0.996307,0.013376,0.000339,0.007751,-2.550145,-15.094392,-43.531933,,,,,,,5
1508446673.902759,0.071331,0.047016,-0.046023,-0.038025,-0.033491,-0.028119,0.071192,-0.046999,-0.996355,0.009298,0.004061,-0.002516,-2.525104,-15.071395,-43.541359,,,,,,,5
1508446673.922769,0.071229,0.046055,-0.046508,-0.036961,-0.047284,-0.023862,0.071094,-0.046038,-0.996407,0.011762,0.002169,0.006340,-2.529231,-15.013433,-43.561142,,,,,,,5
1508446673.942753,0.070638,0.045180,-0.046987,-0.040144,-0.051548,-0.029215,0.070507,-0.045165,-0.996488,0.018360,0.002700,0.009321,-2.534418,-14.995876,-43.566887,,,,,,,5
1508446673.962765,0.071472,0.044095,-0.047833,-0.052883,-0.049488,-0.051678,0.071341,-0.044080,-0.996477,0.050683,0.000822,0.006380,-2.540958,-14.937731,-43.586475,,,,,,,5
1508446673.982801,0.070578,0.042597,-0.048827,-0.082637,-0.215141,-0.038208,0.070455,-0.042585,-0.996606,0.078074,-0.001529,-0.005409,-2.522440,-14.899931,-43.600487,,,,,,,5
1508446674.002798,0.065868,0.040979,-0.049435,-0.070906,-0.200327,-0.053006,0.065765,-0.040968,-0.996994,0.084289,-0.001970,-0.021973,-2.628975,-14.831558,-43.617500,,,,,,,5
1508446674.022825,0.059848,0.039797,-0.051271,-0.046235,-0.398142,-0.112555,0.059765,-0.039786,-0.997419,-0.004803,-0.003976,-0.013292,-2.875014,-14.767554,-43.623692,,,,,,,5
1508446674.042834,0.051812,0.039119,-0.053375,-0.030318,-0.338612,-0.098537,0.051749,-0.039109,-0.997894,-0.013251,-0.002349,0.047363,-3.119439,-14.747480,-43.613689,,,,,,,5
1508446674.062844,0.047667,0.037851,-0.054843,-0.081581,-0.162104,-0.060495,0.047615,-0.037842,-0.998149,-0.025276,-0.004944,0.027705,-3.371955,-14.724277,-43.602737,,,,,,,5
1508446674.082857,0.044739,0.035515,-0.055718,-0.127392,-0.139738,-0.051274,0.044696,-0.035507,-0.998369,-0.003116,-0.005814,0.001696,-3.524877,-14.624732,-43.624138,,,,,,,5
1508446674.102868,0.042153,0.032958,-0.057087,-0.114551,-0.143059,-0.087372,0.042117,-0.032952,-0.998569,0.008725,-0.005439,0.005283,-3.598130,-14.543382,-43.645351,,,,,,,5
1508446674.122877,0.038322,0.031400,-0.059083,-0.045264,-0.222846,-0.109220,0.038294,-0.031395,-0.998773,-0.002634,0.005013,0.007227,-3.706602,-14.457384,-43.664841,,,,,,,5
1508446674.142890,0.033102,0.031364,-0.061171,0.011161,-0.244089,-0.099187,0.033080,-0.031359,-0.998961,-0.014769,-0.003492,0.027586,-3.827012,-14.434089,-43.662159,,,,,,,5
1508446674.162878,0.028777,0.031316,-0.062864,-0.015521,-0.198313,-0.075949,0.028759,-0.031311,-0.999096,-0.003918,-0.021943,-0.013432,-4.114727,-14.456127,-43.628693,,,,,,,5
1508446674.182909,0.024973,0.030218,-0.064186,-0.073043,-0.198232,-0.061517,0.024960,-0.030213,-0.999232,0.008701,-0.018798,-0.015615,-4.224869,-14.440042,-43.623489,,,,,,,5
1508446674.202922,0.020651,0.028843,-0.065334,-0.091135,-0.267268,-0.060632,0.020641,-0.028839,-0.999371,0.016301,-0.011444,-0.009937,-4.323329,-14.414698,-43.622223,,,,,,,5
1508446674.222924,0.013956,0.027170,-0.066452,-0.063423,-0.338448,-0.057262,0.013950,-0.027167,-0.999534,-0.010609,0.005225,0.017722,-4.664137,-14.312871,-43.620647,,,,,,,5
1508446674.242943,0.006266,0.026116,-0.067513,-0.026173,-0.349051,-0.045251,0.006264,-0.026113,-0.999639,-0.019890,0.007589,0.031896,-4.894884,-14.274213,-43.608028,,,,,,,5
1508446674.262955,-0.000286,0.025920,-0.067941,-0.011352,-0.305376,-0.008894,-0.000285,-0.025917,-0.999664,-0.018101,-0.001701,0.039184,-5.145044,-14.250698,-43.586914,,,,,,,5
1508446674.282967,-0.005688,0.025502,-0.067971,-0.055066,-0.227760,0.003581,-0.005686,-0.025500,-0.999659,-0.007528,-0.014234,0.010096,-5.537045,-14.240778,-43.542103,,,,,,,5
1508446674.302975,-0.010529,0.023982,-0.067601,-0.078521,-0.251034,0.027859,-0.010526,-0.023979,-0.999657,-0.000704,-0.014015,0.000054,-5.690946,-14.196309,-43.536777,,,,,,,5
1508446674.322988,-0.015925,0.023097,-0.066942,-0.035926,-0.283965,0.034574,-0.015920,-0.023095,-0.999606,0.003851,-0.007438,-0.016232,-5.860873,-14.143848,-43.531311,,,,,,,5
1508446674.342998,-0.022341,0.022674,-0.066235,-0.014607,-0.332842,0.034713,-0.022333,-0.022672,-0.999493,0.003534,-0.006930,0.005902,-6.259944,-14.100368,-43.489838,,,,,,,5
1508446674.362996,-0.028218,0.022552,-0.065868,-0.012462,-0.261767,0.006037,-0.028207,-0.022550,-0.999348,0.009408,-0.003955,0.018848,-6.408934,-14.091919,-43.470867,,,,,,,5
1508446674.383023,-0.031951,0.021866,-0.065888,-0.055099,-0.149156,0.000446,-0.031938,-0.021864,-0.999251,0.014131,-0.014559,-0.005968,-6.724839,-14.070968,-43.429913,,,,,,,5
1508446674.403030,-0.033695,0.020472,-0.065940,-0.117935,-0.115124,0.001018,-0.033681,-0.020471,-0.999223,0.018026,-0.017676,-0.020690,-6.809949,-14.023651,-43.431957,,,,,,,5
1508446674.423025,-0.035713,0.018148,-0.065947,-0.134933,-0.205390,0.006133,-0.035700,-0.018147,-0.999198,0.046381,-0.012935,-0.024530,-6.835699,-13.956129,-43.449661,,,,,,,5
1508446674.443053,-0.041038,0.015664,-0.066030,-0.117827,-0.312727,-0.003390,-0.041022,-0.015663,-0.999035,0.061316,0.000908,-0.014484,-7.085583,-13.814433,-43.454906,,,,,,,5
1508446674.463063,-0.048504,0.013736,-0.066255,-0.077327,-0.397730,-0.002055,-0.048481,-0.013735,-0.998730,0.058872,0.004138,0.002972,-7.306544,-13.742191,-43.441219,,,,,,,5
1508446674.483073,-0.056927,0.012967,-0.066565,-0.017647,-0.428646,-0.023945,-0.056891,-0.012966,-0.998296,0.036399,0.004925,0.031957,-7.654676,-13.682920,-43.399963,,,,,,,5
1508446674.503086,-0.065218,0.012973,-0.067378,0.000488,-0.401131,-0.051458,-0.065166,-0.012973,-0.997790,0.034999,-0.019193,0.023516,-8.103142,-13.676292,-43.320564,,,,,,,5
1508446674.523097,-0.072635,0.012879,-0.068434,-0.014446,-0.342699,-0.052602,-0.072565,-0.012879,-0.997281,0.036661,-0.020858,0.014798,-8.347297,-13.680975,-43.272701,,,,,,,5
1508446674.543081,-0.076788,0.012781,-0.069429,-0.048576,-0.282062,-0.035802,-0.076706,-0.012781,-0.996972,0.047440,-0.013495,-0.006416,-8.542116,-13.696707,-43.229683,,,,,,,5
1508446674.563118,-0.082354,0.011763,-0.069455,-0.043367,-0.286079,0.031317,-0.082255,-0.011763,-0.996542,0.029856,-0.008546,-0.016535,-8.718200,-13.670341,-43.202869,,,,,,,5
1508446674.583123,-0.088453,0.011440,-0.067944,0.009770,-0.310315,0.095622,-0.088332,-0.011440,-0.996025,-0.029755,-0.014744,0.021920,-9.111423,-13.616715,-43.138615,,,,,,,5
1508446674.603138,-0.095731,0.012375,-0.065809,0.015061,-0.282661,0.107399,-0.095578,-0.012374,-0.995345,-0.031024,-0.016755,0.022704,-9.322145,-13.613509,-43.094585,,,,,,,5
1508446674.623151,-0.101647,0.012234,-0.063596,-0.000892,-0.311343,0.105116,-0.101465,-0.012234,-0.994764,-0.031851,-0.021717,0.009840,-9.593664,-13.640397,-43.026436,,,,,,,5
1508446674.643162,-0.109958,0.012405,-0.061588,-0.014700,-0.370835,0.103893,-0.109728,-0.012405,-0.993884,-0.024137,-0.008393,-0.001248,-10.104737,-13.630896,-42.912304,,,,,,,5
1508446674.663171,-0.118697,0.012038,-0.059193,0.009793,-0.468492,0.129575,-0.118410,-0.012037,-0.992892,-0.012083,-0.002245,-0.005506,-10.383055,-13.605344,-42.853939,,,,,,,5
1508446674.683163,-0.128202,0.012145,-0.056666,0.070509,-0.487681,0.119414,-0.127842,-0.012145,-0.991720,0.012745,0.014571,0.006765,-10.708410,-13.592209,-42.777973,,,,,,,5
1508446674.703194,-0.137696,0.013608,-0.054072,0.092874,-0.456925,0.107910,-0.137248,-0.013608,-0.990443,-0.010487,0.003796,0.006785,-11.367474,-13.620370,-42.598583,,,,,,,5
1508446674.723207,-0.146306,0.014988,-0.052239,0.055640,-0.399660,0.073574,-0.145768,-0.014987,-0.989205,-0.002059,-0.003659,-0.011710,-11.571915,-13.647494,-42.534809,,,,,,,5
1508446674.743211,-0.154537,0.015078,-0.050701,-0.007183,-0.422970,0.081556,-0.153905,-0.015078,-0.987971,-0.029383,-0.009199,-0.019583,-12.132523,-13.686068,-42.365868,,,,,,,5
1508446674.763227,-0.163472,0.014296,-0.048853,-0.025305,-0.461123,0.104802,-0.162728,-0.014295,-0.986567,-0.027152,-0.014239,-0.002675,-12.425110,-13.659383,-42.289612,,,,,,,5
,,,,,,,,,,,,,,,,42.293439,-71.264168,59.517208,-1.000000,-1.000000,1508446674.747431,5
1508446674.783225,-0.173229,0.013780,-0.046616,0.005550,-0.483380,0.124205,-0.172347,-0.013779,-0.984940,-0.020676,-0.017226,0.026779,-12.850685,-13.614752,-42.176670,,,,,,,5
1508446674.803249,-0.184105,0.013858,-0.043539,0.016096,-0.432246,0.167985,-0.183049,-0.013857,-0.983006,-0.036754,-0.008298,0.026341,-13.394106,-13.579094,-42.018795,,,,,,,5
1508446674.823258,-0.192148,0.013756,-0.040063,0.034168,-0.374889,0.168178,-0.190949,-0.013756,-0.981503,-0.038512,0.000160,0.015973,-13.766662,-13.571827,-41.900566,,,,,,,5
1508446674.843269,-0.199299,0.013905,-0.036993,0.033150,-0.353756,0.135179,-0.197963,-0.013905,-0.980111,-0.042897,0.001576,-0.005637,-14.121985,-13.555962,-41.787300,,,,,,,5
1508446674.863282,-0.206658,0.013898,-0.034872,0.015155,-0.384734,0.083899,-0.205171,-0.013897,-0.978628,-0.023711,-0.005985,-0.007838,-14.535696,-13.541227,-41.649990,,,,,,,5
1508446674.883294,-0.216171,0.013880,-0.033656,0.000340,-0.436914,0.046471,-0.214470,-0.013879,-0.976632,-0.014503,-0.002799,0.017236,-14.801537,-13.531347,-41.559479,,,,,,,5
1508446674.903301,-0.225285,0.013676,-0.033367,-0.013412,-0.462556,0.002684,-0.223363,-0.013676,-0.974639,-0.005015,0.000050,0.017120,-15.221809,-13.525017,-41.409462,,,,,,,5
1508446674.923314,-0.233851,0.013259,-0.033163,-0.006065,-0.381692,0.040072,-0.231705,-0.013258,-0.972696,-0.006424,-0.025606,0.038797,-15.509045,-13.515093,-41.305992,,,,,,,5
1508446674.943322,-0.239822,0.014442,-0.030961,0.040488,-0.147639,0.144978,-0.237505,-0.014441,-0.971279,-0.042967,-0.025613,0.068477,-16.000746,-13.542675,-41.108940,,,,,,,5
1508446674.963334,-0.239127,0.013851,-0.026770,-0.005614,0.149115,0.241714,-0.236832,-0.013851,-0.971452,-0.062759,-0.025944,0.061189,-16.081390,-13.524892,-41.083324,,,,,,,5
1508446674.983347,-0.237633,0.012907,-0.022723,-0.062065,0.390083,0.186064,-0.235384,-0.012907,-0.971817,-0.114302,-0.013964,0.051590,-16.233255,-13.508095,-41.029087,,,,,,,5
1508446675.003357,-0.231673,0.010781,-0.020878,-0.030999,0.436373,0.063910,-0.229593,-0.010781,-0.973227,-0.067755,0.015252,-0.005945,-15.820463,-13.360368,-41.238171,,,,,,,5
1508446675.023367,-0.225262,0.010654,-0.020357,0.009679,0.220479,0.001263,-0.223349,-0.010654,-0.974680,-0.010172,0.006412,-0.062292,-15.688841,-13.309606,-41.304813,,,,,,,5
1508446675.043364,-0.222937,0.010624,-0.021288,-0.032758,0.070483,-0.067316,-0.221082,-0.010624,-0.975197,0.064405,-0.020245,-0.057426,-15.548913,-13.314361,-41.356163,,,,,,,5
1508446675.063390,-0.217888,0.011762,-0.023295,-0.016727,0.107519,-0.109747,-0.216153,-0.011761,-0.976289,0.068830,-0.028918,0.005555,-15.269768,-13.372244,-41.441410,,,,,,,5
1508446675.083395,-0.214973,0.012710,-0.025399,0.041809,0.145745,-0.106041,-0.213304,-0.012710,-0.976903,0.076463,-0.028504,0.011876,-15.205017,-13.386045,-41.460758,,,,,,,5
1508446675.103390,-0.210280,0.014998,-0.026897,0.016244,0.038611,-0.066938,-0.208710,-0.014997,-0.977863,0.038102,-0.028124,0.022433,-14.882385,-13.531591,-41.530518,,,,,,,5
1508446675.123423,-0.210532,0.015491,-0.027928,0.016254,-0.032514,-0.052085,-0.208955,-0.015490,-0.977803,0.026292,-0.026929,0.025288,-14.861520,-13.553624,-41.530807,,,,,,,5
1508446675.143423,-0.211301,0.016163,-0.028827,0.026899,-0.039944,-0.048809,-0.209705,-0.016162,-0.977631,0.015552,-0.021100,0.005753,-14.874916,-13.584104,-41.516048,,,,,,,5
1508446675.163445,-0.211999,0.016844,-0.029866,0.018405,-0.031496,-0.064844,-0.210385,-0.016843,-0.977474,0.002835,-0.002490,-0.021977,-14.896341,-13.629367,-41.493526,,,,,,,5
1508446675.183455,-0.212151,0.017351,-0.031456,-0.000729,0.013023,-0.095846,-0.210532,-0.017350,-0.977433,0.002082,0.001817,-0.023620,-14.897847,-13.654552,-41.484699,,,,,,,5
1508446675.203466,-0.211283,0.017439,-0.033734,-0.030522,0.052267,-0.118421,-0.209683,-0.017439,-0.977614,0.001858,0.006910,-0.017824,-14.854957,-13.680508,-41.491531,,,,,,,5
1508446675.223478,-0.210134,0.017292,-0.036369,-0.034757,0.054346,-0.132296,-0.208560,-0.017291,-0.977857,0.001941,0.016894,-0.000110,-14.757829,-13.692699,-41.522160,,,,,,,5
1508446675.243463,-0.208539,0.016675,-0.039279,-0.041132,0.054321,-0.140867,-0.207002,-0.016674,-0.978198,0.010118,0.009060,0.007724,-14.656998,-13.683216,-41.560978,,,,,,,5
1508446675.263498,-0.207302,0.016122,-0.041886,-0.058223,0.059746,-0.111191,-0.205793,-0.016122,-0.978463,0.008970,0.005959,0.010994,-14.614819,-13.685241,-41.575165,,,,,,,5
1508446675.283511,-0.206330,0.015472,-0.044225,-0.047571,0.035322,-0.106863,-0.204844,-0.015471,-0.978672,-0.013829,0.013442,0.014958,-14.499324,-13.662636,-41.623013,,,,,,,5
1508446675.303514,-0.209211,0.014033,-0.046336,-0.015620,-0.009303,-0.101308,-0.207668,-0.014033,-0.978099,-0.026112,0.011088,0.017222,-14.519823,-13.630946,-41.626255,,,,,,,5
1508446675.323531,-0.211158,0.014396,-0.048227,0.025904,-0.012512,-0.099902,-0.209571,-0.014396,-0.977687,-0.028863,0.005042,0.018505,-14.574969,-13.623035,-41.609570,,,,,,,5
1508446675.343543,-0.214150,0.016570,-0.049828,0.046101,0.025746,-0.090124,-0.212488,-0.016569,-0.977023,-0.030050,-0.013475,0.017093,-14.699886,-13.662524,-41.552639,,,,,,,5
1508446675.363554,-0.214698,0.018527,-0.051400,0.036506,0.068225,-0.094430,-0.213016,-0.018525,-0.976873,-0.034527,-0.021086,0.014120,-14.752975,-13.819607,-41.481819,,,,,,,5
1508446675.383563,-0.212980,0.019572,-0.053200,0.029050,0.092644,-0.099797,-0.211333,-0.019571,-0.977218,-0.025971,-0.020651,0.010436,-14.685968,-13.862858,-41.491165,,,,,,,5
1508446675.403554,-0.211161,0.021267,-0.055125,0.005620,0.121326,-0.103163,-0.209548,-0.021265,-0.977567,0.008758,-0.020468,-0.009051,-14.562328,-13.965685,-41.500256,,,,,,,5
1508446675.423586,-0.208147,0.021177,-0.057211,-0.047647,0.164928,-0.098246,-0.206601,-0.021176,-0.978196,0.007168,-0.020328,-0.014236,-14.458543,-13.984512,-41.530193,,,,,,,5
1508446675.443582,-0.203884,0.020800,-0.059244,-0.079634,0.194754,-0.080388,-0.202430,-0.020799,-0.979076,0.005744,-0.015639,-0.016530,-14.335829,-13.976835,-41.575298,,,,,,,5
1508446675.463586,-0.200214,0.019528,-0.061186,-0.078547,0.164994,-0.084660,-0.198841,-0.019527,-0.979837,0.011646,0.006786,-0.001379,-14.042077,-13.942049,-41.687080,,,,,,,5
1508446675.483619,-0.197540,0.018831,-0.062800,-0.034900,0.115106,-0.066237,-0.196223,-0.018830,-0.980379,0.023173,0.008119,0.006669,-13.900016,-13.912621,-41.744480,,,,,,,5
1508446675.503629,-0.194251,0.018612,-0.064125,-0.018936,0.107688,-0.059723,-0.192999,-0.018610,-0.981023,0.025778,0.001200,0.011983,-13.844128,-13.908937,-41.764275,,,,,,,5
1508446675.523641,-0.191946,0.018263,-0.065402,-0.040236,0.115139,-0.058828,-0.190737,-0.018262,-0.981471,0.019625,-0.018130,0.008098,-13.633774,-13.903559,-41.835205,,,,,,,5
1508446675.543634,-0.189811,0.017526,-0.066614,-0.047698,0.098179,-0.049320,-0.188644,-0.017525,-0.981889,0.006103,-0.020531,0.007341,-13.551479,-13.887113,-41.867393,,,,,,,5
1508446675.563662,-0.188102,0.017356,-0.067517,0.008725,0.081187,-0.039284,-0.186966,-0.017355,-0.982213,-0.019821,-0.004954,0.015340,-13.459598,-13.865525,-41.904167,,,,,,,5
1508446675.583674,-0.188597,0.017424,-0.068075,0.077930,0.093879,-0.042961,-0.187453,-0.017423,-0.982119,-0.013658,0.012937,0.026309,-13.417696,-13.883546,-41.911640,,,,,,,5
1508446675.603662,-0.186270,0.018989,-0.068738,0.063026,0.114046,-0.050522,-0.185161,-0.018988,-0.982525,0.005169,0.003455,0.010189,-13.384689,-13.918121,-41.910728,,,,,,,5
1508446675.623670,-0.183170,0.019956,-0.069690,0.020435,0.139543,-0.057243,-0.182111,-0.019955,-0.983075,0.009550,-0.001606,0.003431,-13.243193,-13.978483,-41.935581,,,,,,,5
1508446675.643706,-0.179511,0.020482,-0.070886,0.004471,0.150154,-0.063755,-0.178511,-0.020481,-0.983725,0.017531,0.003727,0.000830,-13.043810,-14.020183,-41.984127,,,,,,,5
1508446675.663703,-0.176100,0.020118,-0.072183,-0.012557,0.131043,-0.063910,-0.175156,-0.020116,-0.984335,0.000595,0.014837,-0.022226,-12.880644,-14.014765,-42.036278,,,,,,,5
1508446675.683727,-0.173632,0.019814,-0.073533,-0.029589,0.124677,-0.064056,-0.172727,-0.019813,-0.984770,-0.001834,0.014534,-0.021791,-12.788519,-14.014684,-42.064423,,,,,,,5
1508446675.703739,-0.170460,0.019794,-0.075034,-0.000844,0.184098,-0.079744,-0.169603,-0.019792,-0.985314,-0.000762,0.020754,0.005562,-12.695210,-14.009123,-42.094528,,,,,,,5
1508446675.723750,-0.165329,0.019565,-0.076708,0.008713,0.254187,-0.086001,-0.164545,-0.019564,-0.986175,0.033015,0.002321,0.002106,-12.397182,-14.008722,-42.183392,,,,,,,5
1508446675.743760,-0.159973,0.019823,-0.078222,-0.005160,0.260624,-0.070139,-0.159261,-0.019821,-0.987038,0.035970,-0.006287,-0.003075,-12.213001,-14.027666,-42.230797,,,,,,,5
1508446675.763752,-0.153502,0.020337,-0.079426,-0.014745,0.203337,-0.051097,-0.152869,-0.020336,-0.988037,0.059698,-0.019551,-0.005173,-11.847170,-14.063819,-42.322887,,,,,,,5
1508446675.783783,-0.150036,0.020059,-0.080370,-0.024319,0.155567,-0.042694,-0.149444,-0.020058,-0.988567,0.065276,-0.019295,-0.005421,-11.716249,-14.061059,-42.360229,,,,,,,5
1508446675.803793,-0.144397,0.020431,-0.081241,-0.023247,0.109933,-0.032073,-0.143866,-0.020430,-0.989386,0.068243,-0.016801,-0.001901,-11.608547,-14.053967,-42.392227,,,,,,,5
1508446675.823788,-0.142902,0.020069,-0.081576,-0.016886,0.049493,0.000941,-0.142387,-0.020068,-0.989608,0.065254,-0.001676,0.007293,-11.333977,-14.066784,-42.462212,,,,,,,5
1508446675.843815,-0.142636,0.019925,-0.081119,0.005445,-0.006710,0.033025,-0.142125,-0.019924,-0.989648,0.061085,0.005550,0.008279,-11.314118,-14.057208,-42.470680,,,,,,,5
1508446675.863825,-0.143195,0.020186,-0.080374,0.025690,-0.040711,0.034231,-0.142677,-0.020185,-0.989564,0.054756,0.009397,-0.002670,-11.331295,-14.056224,-42.466431,,,,,,,5
1508446675.883838,-0.142550,0.020330,-0.079799,0.031051,-0.078988,0.023599,-0.142038,-0.020329,-0.989652,0.039759,0.007557,-0.012881,-11.395679,-14.075724,-42.442734,,,,,,,5
1508446675.903848,-0.144453,0.020956,-0.079371,0.037471,-0.104525,0.012985,-0.143920,-0.020954,-0.989367,0.038192,0.007145,-0.013043,-11.371403,-14.076589,-42.448956,,,,,,,5
1508446675.923858,-0.145800,0.021731,-0.079107,0.041745,-0.111982,0.006626,-0.145250,-0.021729,-0.989156,0.020250,0.001145,-0.003596,-11.426195,-14.105550,-42.424622,,,,,,,5
1508446675.943870,-0.147564,0.022345,-0.079040,0.020450,-0.067398,-0.006293,-0.146993,-0.022343,-0.988885,-0.003505,-0.015743,0.010568,-11.535952,-14.144616,-42.381893,,,,,,,5
1508446675.963861,-0.148026,0.022282,-0.079245,-0.018973,-0.000462,-0.009762,-0.147449,-0.022281,-0.988819,-0.013714,-0.015470,0.010791,-11.567413,-14.151117,-42.371147,,,,,,,5
1508446675.983891,-0.147360,0.021683,-0.079501,-0.031776,0.048415,-0.008766,-0.146793,-0.021682,-0.988930,-0.019849,-0.012056,0.012627,-11.556461,-14.135537,-42.379330,,,,,,,5
1508446676.003903,-0.146203,0.021440,-0.079868,-0.001955,0.060057,-0.017029,-0.145650,-0.021438,-0.989104,-0.007854,-0.001694,0.014937,-11.497118,-14.113555,-42.402794,,,,,,,5
1508446676.023906,-0.144657,0.021964,-0.080143,0.019306,0.047318,-0.015774,-0.144119,-0.021962,-0.989317,0.018386,-0.000774,0.012953,-11.424095,-14.133415,-42.415913,,,,,,,5
1508446676.043923,-0.144084,0.022375,-0.080322,0.018241,0.018665,-0.007287,-0.143550,-0.022373,-0.989390,0.017817,-0.000363,0.013026,-11.395811,-14.148226,-42.418583,,,,,,,5
1508446676.063936,-0.143983,0.022745,-0.080222,0.022483,0.000656,0.007641,-0.143449,-0.022743,-0.989396,0.013459,0.013145,0.007814,-11.382607,-14.161081,-42.417843,,,,,,,5
1508446676.103933,-0.141340,0.021712,-0.079702,0.032076,-0.014231,0.002386,-0.140836,-0.021710,-0.989795,0.024641,0.014889,0.000232,-11.314233,-14.117472,-42.450657,,,,,,,5
1508446676.083946,-0.141098,0.020999,-0.079928,0.039503,-0.003571,0.014167,-0.140599,-0.020997,-0.989844,0.024404,0.014177,0.000281,-11.314233,-14.117472,-42.450657,,,,,,,5
1508446676.123969,-0.138303,0.021771,-0.079646,0.005438,0.009177,0.006443,-0.137830,-0.021770,-0.990217,0.033094,0.000560,0.004285,-11.216703,-14.127172,-42.473309,,,,,,,5
1508446676.143979,-0.136581,0.021141,-0.079347,-0.007371,-0.018342,0.031870,-0.136127,-0.021140,-0.990466,0.006671,0.005820,0.011782,-11.084217,-14.112141,-42.513065,,,,,,,5
1508446676.163989,-0.137683,0.021190,-0.078554,0.023510,-0.048081,0.038491,-0.137218,-0.021188,-0.990314,-0.004216,-0.000601,0.018329,-11.091604,-14.094659,-42.516941,,,,,,,5
1508446676.183983,-0.139969,0.024665,-0.077437,0.107624,-0.062973,0.046627,-0.139470,-0.024662,-0.989919,-0.003550,-0.023418,0.000890,-11.222765,-14.183306,-42.452991,,,,,,,5
1508446676.203989,-0.141158,0.028213,-0.075817,0.119284,-0.057562,0.076540,-0.140634,-0.028209,-0.989660,-0.000479,-0.034001,-0.010539,-11.276830,-14.289398,-42.403057,,,,,,,5
1508446676.224020,-0.142126,0.030655,-0.073841,0.038328,-0.031970,0.091862,-0.141582,-0.030650,-0.989452,0.000941,-0.034703,-0.019154,-11.326168,-14.404894,-42.350800,,,,,,,5
1508446676.244023,-0.142338,0.030473,-0.072198,-0.012768,0.005179,0.074432,-0.141792,-0.030469,-0.989427,0.001015,-0.009540,-0.025664,-11.396610,-14.474482,-42.308151,,,,,,,5
1508446676.264045,-0.142372,0.029677,-0.071065,-0.022306,-0.011888,0.053046,-0.141829,-0.029672,-0.989446,-0.001665,0.004114,-0.012751,-11.412199,-14.441899,-42.315083,,,,,,,5
1508446676.284048,-0.143319,0.029394,-0.070278,0.004378,-0.068280,0.031928,-0.142767,-0.029389,-0.989320,-0.003091,0.009995,0.000260,-11.427446,-14.420056,-42.318417,,,,,,,5
1508446676.304067,-0.145187,0.029863,-0.069895,0.034256,-0.101323,0.004467,-0.144613,-0.029859,-0.989038,-0.011927,-0.007113,0.009240,-11.530874,-14.421807,-42.289757,,,,,,,5
1508446676.324076,-0.148004,0.031034,-0.069907,0.030028,-0.093954,-0.014728,-0.147393,-0.031029,-0.988591,-0.018729,-0.011574,0.014867,-11.595810,-14.444470,-42.264259,,,,,,,5
1508446676.344058,-0.149325,0.031331,-0.070492,-0.006147,-0.046232,-0.043739,-0.148697,-0.031326,-0.988387,-0.030197,-0.020737,0.020140,-11.699601,-14.490857,-42.219753,,,,,,,5
1508446676.364099,-0.149469,0.030990,-0.071701,-0.035958,0.010028,-0.060978,-0.148841,-0.030985,-0.988376,-0.030785,-0.010839,0.029696,-11.719083,-14.495647,-42.212704,,,,,,,5
1508446676.384088,-0.149839,0.030480,-0.072595,-0.039231,0.046268,-0.025841,-0.149210,-0.030475,-0.988336,-0.025808,0.021808,0.023843,-11.736059,-14.483339,-42.212215,,,,,,,5
1508446676.404121,-0.149074,0.029991,-0.072872,-0.014776,0.029345,-0.001163,-0.148456,-0.029987,-0.988464,-0.027768,0.030750,0.024124,-11.692202,-14.457711,-42.233162,,,,,,,5
1508446676.424132,-0.148878,0.028430,-0.072449,0.021362,0.024134,0.033204,-0.148269,-0.028426,-0.988538,-0.003434,0.042922,0.020063,-11.667303,-14.449756,-42.242771,,,,,,,5
1508446676.444116,-0.148466,0.029238,-0.071652,0.060767,0.018788,0.029267,-0.147858,-0.029234,-0.988576,0.013932,0.028303,0.003911,-11.673809,-14.390896,-42.261063,,,,,,,5
1508446676.464152,-0.148468,0.030749,-0.071154,0.082126,-0.008944,0.000674,-0.147853,-0.030744,-0.988531,0.017818,0.015607,-0.009073,-11.669580,-14.439718,-42.245571,,,,,,,5
1508446676.484165,-0.148477,0.032456,-0.071368,0.048119,-0.019664,-0.032622,-0.147854,-0.032450,-0.988477,0.005734,-0.008993,-0.025592,-11.681277,-14.523035,-42.213768,,,,,,,5
1508446676.504174,-0.148573,0.032807,-0.072176,-0.010435,0.001579,-0.042672,-0.147947,-0.032801,-0.988451,-0.004625,-0.007833,-0.024320,-11.666092,-14.565294,-42.203407,,,,,,,5
1508446676.524185,-0.148364,0.032363,-0.073034,-0.033875,0.013295,-0.037533,-0.147743,-0.032358,-0.988496,-0.019219,0.003030,-0.012785,-11.651197,-14.563558,-42.208122,,,,,,,5
1508446676.544197,-0.148515,0.031610,-0.073918,-0.022156,0.027068,-0.045944,-0.147896,-0.031605,-0.988498,-0.014335,0.007969,0.011294,-11.634277,-14.549169,-42.217751,,,,,,,5
1508446676.564208,-0.147729,0.031425,-0.074960,-0.014703,0.047230,-0.051191,-0.147119,-0.031420,-0.988620,0.005045,-0.001798,0.012835,-11.604496,-14.523610,-42.234745,,,,,,,5
1508446676.584218,-0.146137,0.031684,-0.075970,0.000178,0.084420,-0.046781,-0.145544,-0.031678,-0.988844,0.003989,-0.005736,0.008559,-11.557348,-14.524755,-42.247272,,,,,,,5
1508446676.604229,-0.144285,0.032180,-0.076550,0.033140,0.091922,-0.023079,-0.143711,-0.032175,-0.989097,0.018833,-0.014715,0.012839,-11.444091,-14.556303,-42.267242,,,,,,,5
1508446676.624241,-0.141877,0.033906,-0.076655,0.055481,0.068606,-0.004812,-0.141320,-0.033899,-0.989383,0.021874,-0.016958,0.009540,-11.385498,-14.585079,-42.273148,,,,,,,5
1508446676.644247,-0.140850,0.034892,-0.076463,0.044829,0.037845,0.006789,-0.140300,-0.034885,-0.989494,0.025462,-0.017163,-0.002922,-11.302464,-14.651765,-42.272369,,,,,,,5
1508446676.664252,-0.140737,0.035581,-0.076111,0.033127,-0.010986,0.015174,-0.140184,-0.035574,-0.989486,0.019884,-0.014902,-0.003998,-11.268232,-14.703960,-42.263382,,,,,,,5
1508446676.684273,-0.140586,0.036504,-0.075767,0.023563,-0.038607,0.012944,-0.140030,-0.036496,-0.989474,0.017807,-0.010379,-0.004239,-11.283188,-14.720485,-42.253639,,,,,,,5
1508446676.704284,-0.141293,0.037110,-0.075685,0.011885,-0.038667,-0.006318,-0.140727,-0.037102,-0.989353,0.003901,-0.006615,0.004200,-11.281007,-14.768198,-42.237568,,,,,,,5
1508446676.724296,-0.142770,0.037727,-0.076068,0.005529,-0.010074,-0.031902,-0.142184,-0.037718,-0.989121,-0.012357,-0.001162,0.005769,-11.333381,-14.797903,-42.213146,,,,,,,5
1508446676.744306,-0.143005,0.037700,-0.076939,-0.005103,0.028103,-0.052191,-0.142417,-0.037691,-0.989089,-0.015481,0.004153,0.005416,-11.345161,-14.808803,-42.206154,,,,,,,5
1508446676.764317,-0.142973,0.037190,-0.078108,-0.010414,0.037627,-0.062875,-0.142388,-0.037182,-0.989112,-0.021721,0.014355,-0.001473,-11.361471,-14.787748,-42.209156,,,,,,,5
1508446676.784329,-0.143478,0.035656,-0.079411,-0.019989,0.026990,-0.067220,-0.142895,-0.035648,-0.989096,-0.014698,0.021564,-0.010523,-11.334688,-14.763273,-42.224918,,,,,,,5
1508446676.804315,-0.143111,0.035315,-0.080821,-0.031693,0.009999,-0.067329,-0.142534,-0.035308,-0.989160,-0.001830,0.022368,-0.009177,-11.318050,-14.725906,-42.242424,,,,,,,5
1508446676.824349,-0.142714,0.034330,-0.082230,-0.021046,0.005745,-0.067244,-0.142146,-0.034324,-0.989250,0.007152,0.017386,-0.000358,-11.304880,-14.719623,-42.248142,,,,,,,5
1508446676.844362,-0.141129,0.033936,-0.083599,-0.000834,0.021694,-0.061742,-0.140580,-0.033929,-0.989488,0.023087,0.000879,0.005403,-11.234743,-14.674793,-42.282433,,,,,,,5
1508446676.864372,-0.139603,0.034199,-0.084530,0.005494,0.052591,-0.036112,-0.139068,-0.034192,-0.989692,0.022445,-0.005938,0.011116,-11.130251,-14.690447,-42.304626,,,,,,,5
1508446676.884381,-0.137836,0.034899,-0.084978,0.031016,0.056889,-0.018863,-0.137316,-0.034892,-0.989913,0.018572,-0.005635,0.014220,-11.101952,-14.697839,-42.309494,,,,,,,5
1508446676.904394,-0.136338,0.035866,-0.085245,0.025705,0.030340,-0.017862,-0.135828,-0.035859,-0.990083,0.022638,-0.008651,0.012331,-10.973305,-14.763265,-42.320274,,,,,,,5
1508446676.924405,-0.135807,0.036038,-0.085659,-0.020062,0.006985,-0.020387,-0.135302,-0.036030,-0.990149,0.009463,-0.005215,0.011984,-10.951563,-14.774404,-42.322021,,,,,,,5
1508446676.944416,-0.135410,0.035695,-0.086091,-0.022205,0.016567,-0.015074,-0.134910,-0.035688,-0.990215,0.007331,-0.003009,0.013729,-10.931452,-14.770445,-42.328602,,,,,,,5
1508446676.964423,-0.134330,0.035555,-0.086273,0.013970,0.028275,-0.004119,-0.133842,-0.035547,-0.990365,0.010719,0.004343,0.006524,-10.886422,-14.763347,-42.342678,,,,,,,5
1508446676.984437,-0.133259,0.035934,-0.086204,0.025678,0.013421,0.002355,-0.132779,-0.035926,-0.990494,0.011304,0.002402,-0.008407,-10.840128,-14.775245,-42.350407,,,,,,,5
1508446677.004446,-0.133114,0.036055,-0.086108,-0.000929,-0.020548,0.005304,-0.132635,-0.036047,-0.990509,0.009619,0.001898,-0.010635,-10.821417,-14.781685,-42.352943,,,,,,,5
1508446677.024441,-0.133168,0.035695,-0.085970,-0.005227,-0.037506,0.009536,-0.132691,-0.035687,-0.990515,0.015610,0.008374,0.007605,-10.827870,-14.773029,-42.354317,,,,,,,5
1508446677.044470,-0.133283,0.035558,-0.085835,0.013943,-0.033279,0.005439,-0.132805,-0.035550,-0.990504,0.023186,0.009671,0.008235,-10.839516,-14.766022,-42.353779,,,,,,,5
1508446677.064480,-0.133525,0.035811,-0.085661,0.019264,-0.040704,0.008671,-0.133043,-0.035803,-0.990463,0.018709,0.004324,0.005966,-10.823595,-14.762118,-42.359211,,,,,,,5
1508446677.084493,-0.134388,0.036206,-0.085355,0.007549,-0.058731,0.016014,-0.133896,-0.036198,-0.990334,-0.001785,-0.006099,0.005806,-10.864305,-14.776689,-42.343708,,,,,,,5
1508446677.104486,-0.135825,0.036467,-0.085096,0.004369,-0.056635,0.007471,-0.135318,-0.036459,-0.990131,-0.006497,-0.006723,0.010212,-10.908834,-14.785738,-42.329098,,,,,,,5
1508446677.124514,-0.137003,0.036672,-0.085107,-0.008403,-0.018431,-0.005382,-0.136483,-0.036664,-0.989964,-0.015617,-0.009005,0.012913,-10.984025,-14.805935,-42.302586,,,,,,,5
1508446677.144525,-0.138365,0.036446,-0.085315,-0.030769,0.013427,-0.010866,-0.137832,-0.036438,-0.989785,-0.016694,0.002838,-0.001411,-11.034643,-14.804712,-42.289837,,,,,,,5
1508446677.164536,-0.138530,0.035361,-0.085536,-0.031841,-0.000358,-0.003432,-0.138001,-0.035354,-0.989801,-0.015151,0.016479,-0.007865,-11.041727,-14.781872,-42.295979,,,,,,,5
1508446677.184546,-0.139364,0.034353,-0.085447,-0.005231,-0.044934,0.012726,-0.138832,-0.034347,-0.989720,-0.009743,0.024459,-0.004878,-11.075648,-14.710480,-42.311996,,,,,,,5
1508446677.204558,-0.139848,0.033907,-0.084978,0.022421,-0.042765,0.028927,-0.139313,-0.033900,-0.989668,0.022262,0.004161,0.017439,-11.132180,-14.683870,-42.306400,,,,,,,5
1508446677.224542,-0.139299,0.034740,-0.084255,0.038370,-0.013009,0.033340,-0.138765,-0.034733,-0.989716,0.042741,-0.008572,0.011109,-11.100897,-14.709432,-42.305744,,,,,,,5
1508446677.244578,-0.139569,0.035288,-0.083521,0.022399,-0.017246,0.034270,-0.139029,-0.035281,-0.989660,0.043616,-0.010160,0.001943,-11.110560,-14.722248,-42.298748,,,,,,,5
1508446677.264591,-0.140280,0.035161,-0.082613,-0.012761,-0.042650,0.055255,-0.139733,-0.035154,-0.989565,0.011804,-0.012164,-0.001814,-11.155119,-14.731361,-42.283844,,,,,,,5
1508446677.284601,-0.141588,0.034932,-0.081312,-0.005324,-0.069152,0.072332,-0.141029,-0.034924,-0.989389,-0.000176,-0.006930,0.007639,-11.221064,-14.714089,-42.272408,,,,,,,5
1508446677.304611,-0.143277,0.034909,-0.079877,0.013859,-0.086177,0.067154,-0.142700,-0.034902,-0.989150,0.000320,-0.006159,0.009262,-11.262381,-14.705441,-42.264431,,,,,,,5
1508446677.324623,-0.145051,0.035001,-0.078764,0.008575,-0.086253,0.044751,-0.144455,-0.034994,-0.988892,-0.012497,-0.000605,0.001344,-11.354172,-14.700151,-42.241703,,,,,,,5
1508446677.344530,-0.147207,0.034877,-0.078053,0.000076,-0.073554,0.029784,-0.146586,-0.034870,-0.988583,-0.030324,0.014392,-0.000461,-11.503298,-14.691326,-42.204411,,,,,,,5
1508446677.364541,-0.148582,0.034980,-0.077471,0.017110,-0.062947,0.027803,-0.147945,-0.034973,-0.988377,-0.034901,0.016388,0.005543,-11.554947,-14.688362,-42.191330,,,,,,,5
1508446677.384553,-0.150743,0.035204,-0.076794,0.043721,-0.042787,0.025909,-0.150080,-0.035197,-0.988047,-0.028524,-0.005422,0.014124,-11.674969,-14.689574,-42.157852,,,,,,,5
1508446677.404563,-0.151094,0.036003,-0.076233,0.037325,0.001805,0.017372,-0.150422,-0.035996,-0.987966,-0.020950,-0.012207,0.018392,-11.701248,-14.713987,-42.142052,,,,,,,5
1508446677.424569,-0.150750,0.037051,-0.076019,-0.010630,0.068718,0.002145,-0.150077,-0.037042,-0.987980,-0.016656,-0.028769,0.012577,-11.703272,-14.734089,-42.134468,,,,,,,5
1508446677.444573,-0.149725,0.036370,-0.076147,-0.061743,0.093164,-0.001453,-0.149068,-0.036362,-0.988158,-0.026958,-0.007583,-0.008134,-11.636902,-14.748662,-42.147747,,,,,,,5
1508446677.464595,-0.149920,0.035008,-0.076190,-0.058554,0.068755,0.008138,-0.149268,-0.035001,-0.988177,-0.031701,0.005307,-0.003614,-11.635063,-14.706077,-42.163132,,,,,,,5
1508446677.484606,-0.149622,0.033979,-0.075942,-0.009586,0.048581,0.019175,-0.148978,-0.033973,-0.988257,-0.025811,0.012717,0.009375,-11.647637,-14.674617,-42.170620,,,,,,,5
1508446677.504592,-0.148563,0.033149,-0.075515,0.029805,0.054928,0.017376,-0.147935,-0.033143,-0.988442,0.015016,0.021241,0.009529,-11.641020,-14.622033,-42.190708,,,,,,,5
1508446677.524628,-0.147529,0.033734,-0.075141,0.028753,0.049599,0.012039,-0.146911,-0.033727,-0.988575,0.025039,0.018743,0.002094,-11.594406,-14.613414,-42.206528,,,,,,,5
1508446677.544638,-0.146608,0.034178,-0.074940,0.021319,0.044258,0.002391,-0.145998,-0.034172,-0.988695,0.030413,0.007225,0.005830,-11.556404,-14.634258,-42.209728,,,,,,,5
1508446677.564650,-0.144881,0.034688,-0.074953,0.009590,0.039984,-0.004052,-0.144288,-0.034681,-0.988928,0.028931,-0.006655,-0.001993,-11.510611,-14.653917,-42.215416,,,,,,,5
1508446677.584637,-0.144151,0.034728,-0.075079,-0.004241,0.034664,-0.008429,-0.143566,-0.034721,-0.989031,0.020427,-0.009010,-0.005887,-11.447081,-14.667929,-42.227829,,,,,,,5
1508446677.604671,-0.143397,0.034414,-0.075287,-0.025540,0.039990,-0.007536,-0.142822,-0.034407,-0.989150,0.014373,-0.011018,-0.004212,-11.415014,-14.663680,-42.237980,,,,,,,5
1508446677.624683,-0.142000,0.033971,-0.075486,-0.036199,0.049574,-0.003358,-0.141442,-0.033964,-0.989364,0.014489,-0.006746,0.004958,-11.366787,-14.634757,-42.261009,,,,,,,5
1508446677.644695,-0.141158,0.033381,-0.075616,-0.025547,0.033641,-0.001152,-0.140611,-0.033375,-0.989502,0.013231,0.004780,0.008698,-11.316271,-14.623002,-42.278637,,,,,,,5
1508446677.664682,-0.140588,0.032907,-0.075707,-0.006361,-0.002494,-0.003151,-0.140050,-0.032901,-0.989598,0.012349,0.006916,0.011265,-11.277346,-14.595057,-42.298687,,,,,,,5
1508446677.684717,-0.140200,0.032886,-0.075805,0.014950,-0.029067,-0.005124,-0.139665,-0.032880,-0.989653,0.013612,0.001554,0.015379,-11.258545,-14.584112,-42.307468,,,,,,,5
1508446677.704726,-0.141128,0.033707,-0.075780,0.008547,-0.022664,0.002281,-0.140580,-0.033701,-0.989496,-0.010436,-0.007956,0.006601,-11.277637,-14.614941,-42.291744,,,,,,,5
1508446677.724738,-0.141686,0.033875,-0.075613,-0.006391,0.012428,0.010702,-0.141131,-0.033869,-0.989411,-0.017774,-0.007864,-0.000899,-11.302258,-14.627256,-42.280914,,,,,,,5
1508446677.744735,-0.142771,0.034027,-0.075353,-0.016034,0.043218,0.012846,-0.142205,-0.034020,-0.989253,-0.021385,-0.003653,-0.003851,-11.355516,-14.638922,-42.262600,,,,,,,5
1508446677.764760,-0.142649,0.033886,-0.075126,0.006329,0.053808,0.007715,-0.142084,-0.033880,-0.989275,-0.014258,0.000234,-0.000761,-11.364077,-14.630821,-42.263103,,,,,,,5
1508446677.784758,-0.141750,0.034317,-0.075017,0.028702,0.060137,-0.001678,-0.141192,-0.034310,-0.989388,-0.010526,0.000115,-0.000435,-11.357328,-14.633512,-42.263985,,,,,,,5
1508446677.804763,-0.140531,0.035078,-0.074992,0.020187,0.060138,-0.002813,-0.139983,-0.035070,-0.989533,0.004973,-0.005411,0.005264,-11.296843,-14.671398,-42.267059,,,,,,,5
1508446677.824792,-0.139175,0.035334,-0.075090,-0.000032,0.054822,-0.007243,-0.138640,-0.035327,-0.989713,0.007079,-0.003690,0.006360,-11.252575,-14.687750,-42.273190,,,,,,,5
1508446677.844802,-0.138023,0.035213,-0.075316,-0.010668,0.043132,-0.010534,-0.137500,-0.035206,-0.989876,0.008594,-0.001095,0.006386,-11.188078,-14.693510,-42.288307,,,,,,,5
1508446677.864814,-0.136411,0.035244,-0.075575,0.003175,0.045249,-0.011483,-0.135904,-0.035236,-0.990095,0.012979,-0.002209,0.009153,-11.119798,-14.688392,-42.308090,,,,,,,5
1508446677.884826,-0.135077,0.035706,-0.075764,0.021273,0.047370,-0.010267,-0.134580,-0.035699,-0.990259,0.015669,-0.004935,0.007075,-11.074991,-14.698113,-42.316463,,,,,,,5
1508446677.904806,-0.133579,0.036252,-0.075886,0.013766,0.049494,-0.007057,-0.133095,-0.036244,-0.990440,0.020164,-0.005336,0.002525,-11.025629,-14.719175,-42.322037,,,,,,,5
1508446677.924848,-0.131530,0.036710,-0.075992,-0.003274,0.049518,-0.004004,-0.131063,-0.036702,-0.990694,0.020604,-0.006083,-0.003522,-10.937360,-14.748988,-42.334557,,,,,,,5
1508446677.944836,-0.130424,0.036455,-0.076087,-0.016041,0.026159,-0.003062,-0.129968,-0.036447,-0.990848,0.013589,0.000589,-0.000500,-10.839630,-14.751134,-42.358940,,,,,,,5
1508446677.964868,-0.129956,0.036233,-0.076259,-0.004302,-0.004676,-0.009377,-0.129505,-0.036225,-0.990917,0.013752,0.001801,0.004863,-10.829366,-14.744950,-42.363716,,,,,,,5
1508446677.984880,-0.129013,0.036380,-0.076688,0.004245,-0.002610,-0.026341,-0.128570,-0.036372,-0.991033,0.026062,-0.002462,0.014104,-10.794816,-14.741821,-42.373623,,,,,,,5
1508446678.004891,-0.127731,0.036149,-0.077374,-0.017047,0.015438,-0.033956,-0.127301,-0.036141,-0.991206,0.016278,0.006615,-0.008169,-10.727431,-14.750544,-42.387699,,,,,,,5
1508446678.024900,-0.127166,0.035055,-0.077948,-0.045824,0.012326,-0.017160,-0.126745,-0.035048,-0.991316,0.007620,0.015868,-0.010210,-10.691648,-14.731255,-42.403442,,,,,,,5
1508446678.044913,-0.127130,0.032780,-0.078090,-0.025627,-0.012039,0.005348,-0.126720,-0.032774,-0.991397,0.000331,0.033628,-0.002637,-10.670902,-14.657308,-42.434284,,,,,,,5
1508446678.064915,-0.127249,0.031222,-0.077851,0.023289,-0.036458,0.014313,-0.126844,-0.031217,-0.991431,0.009885,0.013761,0.006202,-10.685553,-14.539381,-42.471149,,,,,,,5
1508446678.084909,-0.127647,0.031818,-0.077416,0.039255,-0.036453,0.017639,-0.127237,-0.031812,-0.991362,0.017099,0.003873,0.008223,-10.704681,-14.541842,-42.465488,,,,,,,5
1508446678.104934,-0.127034,0.033041,-0.077036,0.028607,-0.024765,0.015430,-0.126623,-0.033035,-0.991401,0.019247,-0.010254,0.000876,-10.696619,-14.588795,-42.451412,,,,,,,5
1508446678.124956,-0.127203,0.033793,-0.076763,0.006260,-0.031140,0.010982,-0.126788,-0.033787,-0.991354,0.003664,-0.010387,-0.005792,-10.690536,-14.625134,-42.440441,,,,,,,5
1508446678.144964,-0.128113,0.033798,-0.076570,-0.018221,-0.048122,0.011832,-0.127690,-0.033792,-0.991238,-0.003948,-0.010596,-0.005573,-10.701492,-14.635288,-42.434181,,,,,,,5
1508446678.164974,-0.129879,0.033719,-0.076324,-0.019290,-0.048113,0.015017,-0.129440,-0.033713,-0.991014,-0.016846,-0.007760,0.013399,-10.783787,-14.627393,-42.416061,,,,,,,5
1508446678.184989,-0.131485,0.033955,-0.076061,0.006264,-0.032208,0.010981,-0.131031,-0.033948,-0.990797,-0.015819,-0.007800,0.012357,-10.812893,-14.630333,-42.407642,,,,,,,5
1508446678.205000,-0.132224,0.034389,-0.075836,0.014781,-0.013107,0.006807,-0.131762,-0.034382,-0.990685,-0.014204,-0.007976,0.008706,-10.910034,-14.651703,-42.375370,,,,,,,5
1508446678.225013,-0.133425,0.035157,-0.075666,0.005152,-0.006736,0.004643,-0.132948,-0.035150,-0.990500,-0.016283,-0.008170,0.006323,-10.951843,-14.680746,-42.354527,,,,,,,5
1508446678.245023,-0.133811,0.035330,-0.075567,0.000894,-0.002489,0.003546,-0.133329,-0.035323,-0.990442,-0.012851,-0.007493,0.012476,-10.971493,-14.689153,-42.346523,,,,,,,5
1508446678.265033,-0.134037,0.035523,-0.075516,0.005155,0.000688,0.001455,-0.133551,-0.035515,-0.990405,-0.008554,-0.005088,0.016834,-10.996523,-14.702583,-42.335369,,,,,,,5
1508446678.285043,-0.134309,0.035703,-0.075421,-0.001241,0.006013,0.004600,-0.133820,-0.035696,-0.990363,-0.007950,-0.001291,0.006247,-11.001232,-14.710928,-42.331249,,,,,,,5
1508446678.305035,-0.134214,0.035556,-0.075290,-0.008704,0.011343,0.008801,-0.133727,-0.035549,-0.990380,-0.006257,-0.000157,-0.004386,-11.004944,-14.709175,-42.330894,,,,,,,5
1508446678.325066,-0.134136,0.035336,-0.075078,-0.007650,0.013486,0.014136,-0.133650,-0.035329,-0.990399,-0.006608,-0.000011,-0.002353,-11.009681,-14.699221,-42.333118,,,,,,,5
1508446678.345078,-0.133757,0.035207,-0.074771,0.012573,0.030469,0.013251,-0.133276,-0.035200,-0.990454,0.002646,0.004789,0.004278,-11.002085,-14.689413,-42.338497,,,,,,,5
1508446678.365063,-0.132785,0.035633,-0.074433,0.027477,0.030467,0.014438,-0.132311,-0.035625,-0.990568,0.014803,0.000896,0.002012,-10.982964,-14.694396,-42.341736,,,,,,,5
1508446678.385099,-0.131663,0.036018,-0.074104,0.009332,0.011359,0.016437,-0.131197,-0.036010,-0.990702,0.016833,-0.002793,-0.003622,-10.933409,-14.712404,-42.348301,,,,,,,5
1508446678.405111,-0.131347,0.036095,-0.073724,-0.004505,-0.016234,0.021625,-0.130884,-0.036087,-0.990741,0.010676,-0.003861,-0.000379,-10.902721,-14.721129,-42.353184,,,,,,,5
1508446678.425120,-0.131458,0.036227,-0.073326,0.004019,-0.018369,0.019564,-0.130994,-0.036219,-0.990721,0.000440,-0.002981,0.012847,-10.907747,-14.720496,-42.352112,,,,,,,5
1508446678.445132,-0.131730,0.036515,-0.072956,0.016797,-0.006704,0.015419,-0.131262,-0.036507,-0.990675,-0.000605,-0.003608,0.009962,-10.919071,-14.723991,-42.347977,,,,,,,5
1508446678.465133,-0.132252,0.037222,-0.072589,0.025316,0.000719,0.013366,-0.131775,-0.037213,-0.990581,-0.006256,-0.004245,0.008495,-10.948195,-14.753974,-42.330021,,,,,,,5
1508446678.485153,-0.132378,0.037947,-0.072274,0.027446,0.010271,0.011261,-0.131897,-0.037938,-0.990537,-0.005356,-0.004878,-0.000735,-10.960461,-14.782997,-42.316715,,,,,,,5
1508446678.505166,-0.132236,0.038379,-0.071922,0.011461,0.015612,0.017522,-0.131753,-0.038369,-0.990540,-0.006384,-0.004050,-0.002640,-10.962027,-14.797533,-42.311230,,,,,,,5
1508446678.525164,-0.131818,0.038344,-0.071536,-0.008823,0.021975,0.020576,-0.131340,-0.038335,-0.990596,0.002128,-0.000224,-0.002416,-10.954062,-14.808861,-42.309326,,,,,,,5
1508446678.545186,-0.130951,0.037770,-0.071240,-0.013074,0.025144,0.014155,-0.130483,-0.037761,-0.990731,0.010885,0.008495,0.004113,-10.948648,-14.805956,-42.311745,,,,,,,5
1508446678.565197,-0.130261,0.037417,-0.071060,-0.001351,0.020871,0.008925,-0.129802,-0.037408,-0.990834,0.011242,0.010507,0.005528,-10.898746,-14.765187,-42.338871,,,,,,,5
1508446678.585210,-0.129425,0.036974,-0.070940,0.006109,0.014485,0.005788,-0.128976,-0.036966,-0.990959,0.007348,0.006219,0.007606,-10.865820,-14.747612,-42.353455,,,,,,,5
1508446678.605219,-0.129111,0.036959,-0.070789,0.005046,0.005991,0.006837,-0.128665,-0.036951,-0.991000,0.008685,0.005991,0.006823,-10.854965,-14.745361,-42.357021,,,,,,,5
1508446678.625230,-0.128938,0.036977,-0.070710,0.002929,-0.004645,0.002553,-0.128493,-0.036969,-0.991021,0.008330,0.003643,0.001718,-10.838598,-14.741130,-42.362686,,,,,,,5
1508446678.645243,-0.129348,0.036842,-0.070577,-0.004528,-0.019492,0.008869,-0.128900,-0.036834,-0.990973,-0.003989,0.001571,0.001838,-10.850721,-14.738601,-42.360458,,,,,,,5
1508446678.665234,-0.129760,0.036807,-0.070382,0.002917,-0.007806,0.010004,-0.129308,-0.036799,-0.990921,-0.004832,-0.000036,0.007233,-10.868238,-14.733215,-42.357841,,,,,,,5
1508446678.685263,-0.129734,0.036996,-0.070190,0.012494,0.011303,0.007968,-0.129282,-0.036988,-0.990918,-0.001898,-0.000030,0.007657,-10.883299,-14.736139,-42.352962,,,,,,,5
1508446678.705275,-0.129518,0.037346,-0.070007,0.004994,0.017617,0.006870,-0.129066,-0.037338,-0.990933,-0.002419,-0.005097,0.003262,-10.874012,-14.748886,-42.350910,,,,,,,5
1508446678.725284,-0.129215,0.037370,-0.069915,-0.008847,0.019744,0.005692,-0.128766,-0.037361,-0.990971,-0.002887,-0.004677,0.004856,-10.865267,-14.757269,-42.350231,,,,,,,5
1508446678.745296,-0.128901,0.037276,-0.069789,-0.007784,0.014444,0.008891,-0.128455,-0.037267,-0.991015,-0.001321,-0.004496,0.005099,-10.858269,-14.752619,-42.353649,,,,,,,5
1508446678.765308,-0.128593,0.037498,-0.069649,0.008196,0.012297,0.004762,-0.128148,-0.037489,-0.991046,0.002584,-0.004350,0.004077,-10.847030,-14.752955,-42.356411,,,,,,,5
1508446678.785317,-0.128313,0.037922,-0.069569,0.007140,0.003792,0.002618,-0.127869,-0.037913,-0.991066,0.002061,-0.003591,0.002068,-10.829192,-14.772347,-42.354214,,,,,,,5
1508446678.805307,-0.128168,0.038035,-0.069446,-0.001386,0.005936,0.006808,-0.127725,-0.038026,-0.991080,0.002694,-0.003982,0.002158,-10.826085,-14.778238,-42.352955,,,,,,,5
1508446678.825332,-0.127950,0.038192,-0.069371,-0.007773,0.022918,0.001444,-0.127508,-0.038183,-0.991102,0.000433,-0.003123,0.002012,-10.818590,-14.786709,-42.351913,,,,,,,5
1508446678.845350,-0.127179,0.038027,-0.069479,-0.016326,0.036668,-0.006052,-0.126745,-0.038017,-0.991207,0.002126,-0.000175,0.001598,-10.789797,-14.784250,-42.360115,,,,,,,5
1508446678.865334,-0.126494,0.037578,-0.069733,-0.021633,0.024963,-0.012493,-0.126068,-0.037569,-0.991310,0.001632,0.002901,-0.000221,-10.771175,-14.777751,-42.367123,,,,,,,5
1508446678.885373,-0.126071,0.037078,-0.070020,-0.007785,0.005839,-0.011328,-0.125651,-0.037070,-0.991382,0.004893,0.007193,0.007571,-10.732849,-14.750415,-42.386368,,,,,,,5
1508446678.905382,-0.125995,0.036823,-0.070190,0.006050,-0.001586,-0.005896,-0.125576,-0.036815,-0.991401,0.002301,0.006572,0.009757,-10.723289,-14.736899,-42.393490,,,,,,,5
1508446678.925366,-0.126032,0.036964,-0.070275,0.011374,-0.003713,-0.005854,-0.125613,-0.036956,-0.991391,0.001314,0.004226,0.009259,-10.722078,-14.734944,-42.394478,,,,,,,5
1508446678.945406,-0.126146,0.037275,-0.070374,0.008179,-0.000524,-0.005878,-0.125724,-0.037266,-0.991365,-0.001305,-0.003216,0.003435,-10.724541,-14.748233,-42.389233,,,,,,,5
1508446678.965417,-0.126095,0.037382,-0.070427,-0.002483,0.011186,-0.000633,-0.125674,-0.037374,-0.991367,-0.003110,-0.002803,0.002842,-10.725038,-14.758846,-42.385414,,,,,,,5
1508446678.985426,-0.125780,0.037424,-0.070343,0.001755,0.022899,0.007929,-0.125361,-0.037415,-0.991405,-0.002859,-0.002868,0.003643,-10.719456,-14.757745,-42.387207,,,,,,,5
1508446679.005439,-0.125467,0.037395,-0.070074,0.005962,0.015441,0.015421,-0.125051,-0.037386,-0.991446,-0.000850,0.002612,0.004919,-10.701290,-14.758905,-42.391392,,,,,,,5
1508446679.025427,-0.125205,0.037410,-0.069762,0.008099,0.004813,0.014366,-0.124791,-0.037401,-0.991478,0.004887,0.003130,0.001991,-10.693455,-14.755060,-42.394707,,,,,,,5
