timestamp(unix),attitude_roll(radians),attitude_pitch(radians),attitude_yaw(radians),rotation_rate_x(radians/s),rotation_rate_y(radians/s),rotation_rate_z(radians/s),gravity_x(G),gravity_y(G),gravity_z(G),user_acc_x(G),user_acc_y(G),user_acc_z(G),magnetic_field_x(microteslas),magnetic_field_y(microteslas),magnetic_field_z(microteslas),latitude(degree),longitude(degree),altitude(meter),speed(m/s),course(degree),timestamp(unix),User Mark
1508446913.828888,-0.135713,1.385820,-2.287802,0.269195,-0.419388,0.228308,-0.024884,-0.982941,-0.182232,0.072995,0.022613,-0.015552,4.103832,-25.813553,-4.682976,,,,,,,5
,,,,,,,,,,,,,,,,42.293346,-71.264176,61.333225,-1.000000,-1.000000,1508446911.161917,5
,,,,,,,,,,,,,,,,42.293346,-71.264133,61.333225,-1.000000,-1.000000,1508446885.221485,5
1508446913.848902,-0.185010,1.389555,-2.249470,0.218070,-0.706923,0.320305,-0.033158,-0.983621,-0.177174,0.018495,0.079980,0.075566,3.875548,-25.869972,-4.564643,,,,,,,5
,,,,,,,,,,,,,,,,42.293346,-71.264176,61.333225,-1.000000,-1.000000,1508446911.161917,5
1508446913.868911,-0.240349,1.392584,-2.209955,0.249045,-0.818565,0.297052,-0.042198,-0.984162,-0.172175,-0.043831,0.096833,0.163233,3.699172,-25.902472,-4.526514,,,,,,,5
1508446913.888923,-0.278788,1.396751,-2.185668,0.237674,-0.678092,0.061756,-0.047654,-0.984892,-0.166482,-0.058242,0.117537,0.149270,3.531927,-25.934740,-4.475041,,,,,,,5
1508446913.908938,-0.296204,1.400822,-2.179063,0.207891,-0.458453,-0.018180,-0.049375,-0.985589,-0.161790,-0.119524,-0.013175,0.091966,3.399261,-25.971941,-4.360565,,,,,,,5
1508446913.928940,-0.307412,1.404987,-2.174633,0.205703,-0.280043,-0.036163,-0.049943,-0.986285,-0.157313,-0.111052,-0.013440,0.118708,3.380528,-25.984583,-4.299395,,,,,,,5
,,,,,,,,,,,,,,,,42.293349,-71.264226,61.333225,-1.000000,-1.000000,1508446913.915049,5
1508446913.948960,-0.309070,1.408873,-2.177136,0.156798,-0.168730,-0.109950,-0.049038,-0.986919,-0.153577,-0.108311,-0.007664,0.115278,3.377185,-25.995781,-4.233830,,,,,,,5
,,,,,,,,,,,,,,,,42.293360,-71.264255,61.333225,-1.000000,-1.000000,1508446913.925142,5
,,,,,,,,,,,,,,,,42.293371,-71.264284,61.333225,-1.000000,-1.000000,1508446913.948284,5
1508446913.968974,-0.296835,1.412160,-2.191850,0.105766,-0.065924,-0.190139,-0.046206,-0.987444,-0.151064,-0.100934,-0.024611,0.071489,3.450309,-26.002319,-4.133522,,,,,,,5
,,,,,,,,,,,,,,,,42.293382,-71.264312,61.333225,-1.000000,-1.000000,1508446913.962490,5
1508446913.988985,-0.272077,1.415329,-2.216301,0.098338,0.071993,-0.244398,-0.041611,-0.987939,-0.149146,-0.037384,-0.000373,0.082648,3.561466,-25.995523,-4.081666,,,,,,,5
1508446914.008997,-0.242754,1.418909,-2.245217,0.131438,-0.017356,-0.271875,-0.036370,-0.988487,-0.146868,0.020592,0.039070,0.095827,3.628602,-25.990767,-4.052718,,,,,,,5
1508446914.029010,-0.211004,1.423365,-2.280667,0.173181,-0.249171,-0.330267,-0.030767,-0.989152,-0.143640,0.142598,-0.002151,0.092889,3.841359,-25.975616,-3.952540,,,,,,,5
1508446914.049020,-0.176782,1.428757,-2.322176,0.227575,-0.388408,-0.342700,-0.024895,-0.989929,-0.139356,0.163873,-0.008819,0.081968,3.956822,-25.966707,-3.896775,,,,,,,5
1508446914.069016,-0.149848,1.435393,-2.358880,0.330799,-0.528438,-0.270616,-0.020152,-0.990847,-0.133477,0.148799,0.018206,0.040673,4.100065,-25.958061,-3.805235,,,,,,,5
1508446914.089044,-0.137591,1.444455,-2.384672,0.478829,-0.755688,-0.222717,-0.017283,-0.992030,-0.124815,0.073359,-0.000875,0.015608,4.210509,-25.965996,-3.626282,,,,,,,5
1508446914.109055,-0.125111,1.455401,-2.416019,0.519500,-1.034229,-0.291748,-0.014368,-0.993349,-0.114240,0.028696,-0.023420,0.041196,4.275174,-25.981331,-3.435779,,,,,,,5
1508446914.129066,-0.092825,1.466376,-2.470958,0.513341,-1.130197,-0.395152,-0.009661,-0.994553,-0.103782,0.020999,-0.010238,0.097709,4.345262,-25.986689,-3.304838,,,,,,,5
,,,,,,,,,,,,,,,,42.293512,-71.264163,60.611038,-1.000000,-1.000000,1508446914.119316,5
1508446914.149080,-0.037945,1.477621,-2.548217,0.546364,-1.082490,-0.418268,-0.003530,-0.995662,-0.092974,-0.018947,0.027172,0.094134,4.518266,-25.983877,-3.087834,,,,,,,5
1508446914.169068,0.032579,1.488787,-2.639867,0.557981,-1.000588,-0.387232,0.002668,-0.996639,-0.081874,-0.059858,0.033382,0.077297,4.667929,-25.979353,-2.897387,,,,,,,5
1508446914.189101,0.113689,1.498744,-2.740563,0.489708,-0.959965,-0.324945,0.008167,-0.997405,-0.071525,-0.108814,0.012969,0.055244,4.771948,-25.976181,-2.752787,,,,,,,5
1508446914.209114,0.199218,1.506058,-2.846952,0.380060,-1.093667,-0.298268,0.012803,-0.997905,-0.063413,-0.118836,-0.013661,0.055387,4.910835,-25.968597,-2.574273,,,,,,,5
1508446914.229111,0.300187,1.511117,-2.973687,0.322790,-1.413531,-0.336249,0.017637,-0.998220,-0.056976,-0.088880,-0.068782,0.059113,4.985326,-25.959850,-2.518715,,,,,,,5
1508446914.249137,0.423427,1.513750,-3.131030,0.252853,-1.831247,-0.409544,0.023427,-0.998373,-0.051980,-0.058156,-0.120584,0.070062,5.063354,-25.946585,-2.499690,,,,,,,5
1508446914.269151,0.539326,1.512175,2.998790,0.050499,-1.809912,-0.436663,0.030088,-0.998282,-0.050272,0.124224,-0.109338,0.146875,5.243221,-25.900076,-2.608820,,,,,,,5
1508446914.289162,0.626917,1.506354,2.876306,-0.050567,-1.747414,-0.503464,0.037779,-0.997924,-0.052152,0.214021,-0.012772,0.116376,5.347143,-25.864538,-2.746812,,,,,,,5
1508446914.309172,0.729835,1.500043,2.731125,0.164013,-2.401338,-0.639539,0.047135,-0.997498,-0.052687,0.254028,-0.013320,0.086760,5.467783,-25.821825,-2.906531,,,,,,,5
1508446914.329187,0.864349,1.494143,2.537933,0.338078,-3.155955,-0.716399,0.058251,-0.997064,-0.049709,0.429741,-0.198676,0.061321,5.740452,-25.730221,-3.180277,,,,,,,5
1508446914.349197,0.933809,1.486691,2.405922,0.009607,-2.881976,-0.492113,0.067532,-0.996465,-0.049965,0.498432,-0.240336,-0.033470,5.878712,-25.669149,-3.412738,,,,,,,5
1508446914.369184,0.837236,1.479364,2.455615,-0.636981,-2.171066,0.076984,0.067821,-0.995823,-0.061130,0.353078,0.024037,-0.236096,5.875962,-25.629278,-3.704648,,,,,,,5
1508446914.389209,0.605392,1.470543,2.638142,-1.005779,-2.790923,0.480204,0.056957,-0.994979,-0.082298,0.036564,0.329589,-0.290108,5.032452,-25.645712,-6.831056,,,,,,,5
1508446914.409232,0.369249,1.457446,2.812420,-0.965064,-3.321026,0.486527,0.040822,-0.993583,-0.105485,0.001734,0.326590,-0.181030,4.521430,-25.572565,-7.435863,,,,,,,5
1508446914.429243,0.199798,1.444300,2.910164,-0.683450,-3.771134,0.317088,0.025039,-0.992010,-0.123650,-0.025863,-0.054148,0.002678,3.756775,-25.465591,-8.190344,,,,,,,5
1508446914.449257,0.067400,1.434475,2.967136,-0.471566,-3.735161,0.307152,0.009153,-0.990723,-0.135591,-0.006070,-0.181061,0.216646,2.746741,-25.358351,-8.893867,,,,,,,5
1508446914.469268,-0.044235,1.424593,3.008950,-0.555780,-3.370902,0.259883,-0.006442,-0.989331,-0.145541,-0.017514,-0.000049,0.512347,1.938322,-25.285681,-9.304226,,,,,,,5
1508446914.489252,-0.115863,1.409573,3.015961,-0.856716,-3.199592,-0.010787,-0.018557,-0.987032,-0.159450,0.034655,0.231294,0.644878,1.388774,-25.201439,-9.625498,,,,,,,5
1508446914.509292,-0.122976,1.392369,2.957555,-0.893893,-3.267678,-0.651056,-0.021771,-0.984124,-0.176141,0.179883,0.339471,0.564355,0.692893,-24.978569,-10.260720,,,,,,,5
1508446914.529296,-0.065893,1.380160,2.831311,-0.602006,-3.361522,-1.316313,-0.012477,-0.981884,-0.189072,0.277003,0.284038,0.256135,0.571361,-24.799034,-12.060465,,,,,,,5
1508446914.549299,0.005994,1.371871,2.696712,-0.378021,-2.654544,-1.131858,0.001184,-0.980280,-0.197612,0.315466,0.199533,0.107387,0.440969,-24.678911,-12.309769,,,,,,,5
1508446914.569328,0.040711,1.367722,2.621768,-0.048406,-1.535220,-0.582077,0.008208,-0.979451,-0.201515,0.448441,0.004979,-0.211708,0.274107,-24.543610,-12.582113,,,,,,,5
1508446914.589341,0.063796,1.369682,2.574021,0.210952,-1.176828,-0.432730,0.012735,-0.979845,-0.199355,0.252752,-0.043776,-0.227448,0.204469,-24.555807,-12.559619,,,,,,,5
1508446914.609350,0.079894,1.376771,2.526453,0.481708,-1.715657,-0.456456,0.015388,-0.981236,-0.192195,0.103783,-0.067562,-0.137898,0.154120,-24.585876,-12.501374,,,,,,,5
1508446914.629363,0.097066,1.385134,2.472300,0.383825,-1.777305,-0.480735,0.017890,-0.982814,-0.183729,-0.115241,-0.092595,0.154752,-0.138283,-24.754028,-12.165213,,,,,,,5
1508446914.649374,0.127571,1.387690,2.409249,0.081543,-1.445179,-0.636303,0.023166,-0.983283,-0.180605,-0.222461,-0.019998,0.273180,-0.280789,-24.820845,-12.025816,,,,,,,5
1508446914.669386,0.186790,1.383960,2.320282,-0.121238,-1.474898,-0.962746,0.034495,-0.982597,-0.182520,-0.253993,0.037895,0.289103,-0.283917,-24.828676,-12.009565,,,,,,,5
1508446914.689378,0.270250,1.375292,2.203442,-0.190954,-1.517363,-1.268935,0.051862,-0.980950,-0.187211,-0.015272,-0.029258,0.072983,-0.070885,-24.790186,-12.091944,,,,,,,5
1508446914.709410,0.344877,1.363559,2.100799,-0.277811,-1.152078,-1.023420,0.069562,-0.978603,-0.193641,0.013232,-0.070042,0.011848,0.131221,-24.750811,-12.171840,,,,,,,5
1508446914.729413,0.381654,1.353353,2.042407,-0.214733,-1.000859,-0.605405,0.080352,-0.976452,-0.200212,0.055375,-0.060779,-0.082197,0.297880,-24.696930,-12.277883,,,,,,,5
1508446914.749436,0.390695,1.349135,2.008180,0.057577,-1.396325,-0.340464,0.083726,-0.975534,-0.203284,0.011108,0.084420,-0.111551,0.325970,-24.627939,-12.414987,,,,,,,5
1508446914.769446,0.383421,1.351456,1.979818,0.312081,-1.946256,-0.200363,0.081398,-0.976041,-0.201787,-0.042106,0.128110,-0.072810,0.064602,-24.666666,-12.341996,,,,,,,5
1508446914.789442,0.368628,1.357355,1.950610,0.413370,-2.250108,-0.192303,0.076328,-0.977308,-0.197595,-0.055698,0.117734,-0.044440,-0.134233,-24.707750,-12.258975,,,,,,,5
1508446914.809467,0.358139,1.362879,1.916595,0.346325,-2.093072,-0.256622,0.072358,-0.978463,-0.193325,-0.093781,0.074975,0.057964,-0.784153,-24.855564,-11.931452,,,,,,,5
1508446914.829481,0.350209,1.365063,1.886673,0.110781,-1.717850,-0.229535,0.070089,-0.978911,-0.191885,-0.110632,0.029250,0.046622,-1.119347,-24.923946,-11.760842,,,,,,,5
1508446914.849491,0.338390,1.363542,1.869337,-0.060962,-1.262898,-0.177371,0.068310,-0.978600,-0.194104,-0.112988,0.035622,0.071591,-1.323162,-24.937283,-11.711301,,,,,,,5
1508446914.869505,0.331537,1.360217,1.855207,-0.147304,-0.936848,-0.215103,0.068037,-0.977910,-0.197643,-0.089583,0.072667,0.022182,-1.550810,-24.921398,-11.717182,,,,,,,5
1508446914.889512,0.329006,1.352975,1.839848,-0.396350,-0.844595,-0.301204,0.069823,-0.976371,-0.204512,-0.045867,0.013816,-0.079255,-1.621998,-24.892515,-11.768831,,,,,,,5
1508446914.909500,0.325017,1.340798,1.828768,-0.578510,-0.663906,-0.302571,0.072798,-0.973667,-0.216040,-0.018813,-0.001797,-0.095361,-1.659720,-24.829645,-11.895693,,,,,,,5
1508446914.929541,0.319672,1.331234,1.820032,-0.261319,-0.800770,-0.204229,0.074566,-0.971442,-0.225257,0.084004,0.077994,-0.044961,-1.694827,-24.656851,-12.245030,,,,,,,5
1508446914.949540,0.305152,1.332885,1.808933,0.355249,-1.579166,-0.027240,0.070805,-0.971832,-0.224785,0.146556,0.036347,-0.086845,-1.885881,-24.653379,-12.224067,,,,,,,5
1508446914.969563,0.269855,1.346216,1.804091,0.775658,-2.181858,0.239831,0.059369,-0.974888,-0.214638,0.173648,0.024845,-0.096626,-2.090791,-24.705427,-12.084861,,,,,,,5
1508446914.989577,0.203940,1.363302,1.825770,0.744264,-2.200971,0.540880,0.041723,-0.978550,-0.201740,0.173167,0.056492,-0.055081,-3.059314,-24.946075,-11.362544,,,,,,,5
1508446915.009587,0.101874,1.379527,1.888038,0.717014,-1.952419,0.830454,0.019333,-0.981764,-0.189120,0.035446,0.073393,-0.030424,-3.651846,-25.035501,-10.984590,,,,,,,5
1508446915.029571,-0.024301,1.396258,1.980608,0.842438,-1.632611,0.862608,-0.004220,-0.984807,-0.173603,-0.018989,0.081288,-0.032086,-4.277624,-25.103365,-10.597004,,,,,,,5
1508446915.049610,-0.153878,1.411625,2.084807,0.826404,-1.142169,0.758502,-0.024294,-0.987359,-0.156627,-0.229262,0.073861,-0.118428,-5.389332,-25.235495,-9.741579,,,,,,,5
1508446915.069623,-0.283993,1.421688,2.201203,0.571611,-0.465368,0.747328,-0.041624,-0.988904,-0.142606,-0.385149,0.110852,-0.323810,-5.951630,-25.290842,-9.258776,,,,,,,5
1508446915.089612,-0.371825,1.426236,2.293261,0.401333,0.527907,0.416603,-0.052338,-0.989569,-0.134214,-0.431182,0.165518,-0.469485,-6.243711,-25.296270,-9.049215,,,,,,,5
1508446915.109646,-0.427906,1.433966,2.363667,0.715618,0.670644,0.270241,-0.056603,-0.990653,-0.124105,-0.375465,0.137199,-0.105814,-6.352179,-25.338928,-8.852228,,,,,,,5
1508446915.129658,-0.530266,1.453706,2.476987,1.517808,0.345660,0.113711,-0.059085,-0.993153,-0.100780,-0.331952,0.107273,0.095653,-6.363088,-25.433855,-8.567591,,,,,,,5
1508446915.149671,-0.756584,1.483840,2.701589,1.975243,-0.445482,-0.036435,-0.059615,-0.996222,-0.063154,-0.020356,-0.198587,0.181409,-6.371682,-25.684069,-7.778414,,,,,,,5
1508446915.169683,-1.049593,1.503853,2.982871,0.954359,-0.567404,-0.120551,-0.058011,-0.997760,-0.033308,0.297773,-0.176739,0.062345,-6.419173,-26.012146,-6.552558,,,,,,,5
1508446915.189694,-1.100470,1.503726,3.031162,-0.172013,-0.012018,0.254945,-0.059743,-0.997752,-0.030372,0.502111,-0.086660,0.063041,-6.448380,-26.067703,-6.298153,,,,,,,5
1508446915.209704,-1.161739,1.496026,3.079444,0.227517,-1.245924,0.464935,-0.068537,-0.997206,-0.029712,0.640788,0.110335,-0.041410,-6.600198,-26.019436,-6.340334,,,,,,,5
1508446915.229719,-1.451771,1.490235,-2.957476,1.215952,-2.663027,0.580805,-0.079905,-0.996757,-0.009556,0.604380,0.256400,0.143971,-7.167783,-26.008804,-5.739200,,,,,,,5
1508446915.249711,-1.885100,1.474592,-2.577099,2.017740,-2.642293,0.555496,-0.091351,-0.995376,0.029696,0.345394,0.169158,0.324018,-7.622565,-26.055437,-4.876895,,,,,,,5
1508446915.269714,-2.254735,1.444857,-2.249014,2.363786,-1.777547,0.306662,-0.097356,-0.992080,0.079365,0.248678,0.098098,0.368771,-8.011002,-26.120693,-3.782421,,,,,,,5
1508446915.289754,-2.486534,1.412309,-2.036219,2.061574,-0.658101,-0.114495,-0.096148,-0.987467,0.125157,0.016619,-0.005529,0.412334,-8.338947,-26.243874,-1.579410,,,,,,,5
1508446915.309765,-2.631486,1.385518,-1.894908,1.627261,-0.186874,-0.308313,-0.089949,-0.982885,0.160767,-0.166643,-0.080378,0.272445,-8.269453,-26.302475,-0.754590,,,,,,,5
1508446915.329749,-2.721793,1.360401,-1.810466,1.461982,-0.555623,-0.064000,-0.085121,-0.977948,0.190712,-0.258949,-0.113452,0.159812,-8.153126,-26.349438,-0.084293,,,,,,,5
1508446915.349790,-2.782409,1.332083,-1.768744,1.503436,-1.271858,0.181756,-0.083116,-0.971643,0.221363,-0.401885,-0.087500,-0.059284,-8.115346,-26.331793,1.245519,,,,,,,5
1508446915.369800,-2.842995,1.302193,-1.738174,1.547544,-1.613455,0.020021,-0.078071,-0.964143,0.253642,-0.282204,-0.062423,-0.059245,-8.147578,-26.251883,2.286709,,,,,,,5
1508446915.389814,-2.907507,1.275473,-1.702961,1.303940,-1.445030,-0.155416,-0.067510,-0.956708,0.283111,-0.198115,-0.042376,-0.050674,-8.101404,-26.214333,2.819487,,,,,,,5
1508446915.409809,-2.953791,1.254194,-1.680434,1.015107,-1.132290,-0.080902,-0.058127,-0.950299,0.305865,0.007407,0.009426,-0.023212,-7.853633,-26.113400,4.145385,,,,,,,5
1508446915.429836,-2.991320,1.235369,-1.664038,0.982175,-1.115444,-0.129074,-0.049280,-0.944270,0.325463,0.012140,0.035929,-0.037804,-17.793989,-28.944201,-0.908487,,,,,,,5
1508446915.449842,-3.030493,1.214764,-1.645620,1.105752,-1.036046,-0.189749,-0.038645,-0.937287,0.346409,-0.064626,0.022538,0.067409,-17.737219,-28.992767,-0.169242,,,,,,,5
1508446915.469854,-3.059896,1.192787,-1.631273,1.102223,-0.627847,-0.114938,-0.030118,-0.929401,0.367840,-0.075122,-0.034496,0.042866,-17.601830,-29.056587,1.052819,,,,,,,5
1508446915.489871,-3.073217,1.172917,-1.624998,0.918712,-0.260862,-0.005442,-0.026473,-0.921885,0.386558,-0.067537,-0.052785,-0.050545,-17.547054,-29.051500,1.824629,,,,,,,5
1508446915.509867,-3.077939,1.157761,-1.624131,0.661974,-0.187231,0.049991,-0.025533,-0.915906,0.400579,-0.005183,0.007368,-0.099797,-17.545338,-29.022221,2.256087,,,,,,,5
1508446915.529896,-3.083225,1.146066,-1.624893,0.571594,-0.416664,0.044813,-0.024038,-0.911150,0.411373,0.089209,0.063921,-0.127590,-17.567020,-28.960426,2.812768,,,,,,,5
1508446915.549907,-3.101239,1.131926,-1.623637,0.826542,-1.159572,-0.013270,-0.017142,-0.905232,0.424572,0.157722,0.064549,-0.164714,-17.539471,-28.912182,3.416261,,,,,,,5
1508446915.569918,-3.136535,1.110470,-1.621459,1.212347,-1.905520,-0.009585,-0.002247,-0.895907,0.444235,0.228275,0.047000,-0.165335,-17.450445,-28.865585,4.180668,,,,,,,5
1508446915.589932,3.113232,1.083867,-1.624865,1.342956,-1.596051,0.104590,0.013269,-0.883774,0.467727,0.283927,0.033706,-0.204390,-17.229935,-28.696638,5.903423,,,,,,,5
1508446915.609940,3.096371,1.059447,-1.630755,1.149993,-0.944903,0.057706,0.022122,-0.872085,0.488854,0.228061,-0.050370,-0.435021,-17.148897,-28.543318,6.812675,,,,,,,5
1508446915.629953,3.073619,1.036003,-1.633335,1.227058,-1.467893,-0.022974,0.034617,-0.860374,0.508486,0.075338,-0.122338,-0.535586,-17.067656,-28.403463,7.560192,,,,,,,5
1508446915.649967,3.042971,1.010408,-1.637493,1.285671,-1.778981,0.035835,0.052334,-0.847049,0.528933,-0.236401,-0.232755,-0.462420,-16.675692,-28.095480,9.369285,,,,,,,5
1508446915.669978,3.019236,0.987764,-1.646406,1.040354,-1.331205,0.151271,0.067196,-0.834797,0.546442,-0.361783,-0.238308,-0.352335,-16.389404,-27.824797,10.601238,,,,,,,5
1508446915.689988,3.009611,0.971910,-1.655184,0.684416,-0.602362,0.121200,0.074185,-0.825964,0.558820,-0.419995,-0.280466,-0.352445,-16.298918,-27.691696,11.078510,,,,,,,5
1508446915.710002,3.005140,0.962859,-1.661403,0.338281,-0.455538,0.132296,0.077697,-0.820828,0.565866,-0.511016,-0.547336,-0.506296,-16.186560,-27.409519,11.913511,,,,,,,5
1508446915.729996,3.004482,0.963013,-1.669465,-0.199803,-0.263452,0.298359,0.078052,-0.820916,0.565690,-0.511111,-0.648490,-0.578507,-16.177082,-27.328556,12.110749,,,,,,,5
1508446915.749993,3.014634,0.979082,-1.679327,-1.164962,0.338734,0.411163,0.070625,-0.829985,0.553296,-0.458748,-0.697969,-0.676053,-16.253313,-27.294413,12.085653,,,,,,,5
1508446915.770037,3.027817,1.021145,-1.682415,-2.684171,0.563095,0.241211,0.059307,-0.852707,0.519012,-0.141628,-0.819168,-1.092529,-16.685665,-27.579815,10.777784,,,,,,,5
1508446915.790024,3.023525,1.091072,-1.665668,-3.874854,0.378588,-0.145677,0.054366,-0.887122,0.458321,0.264650,-0.474435,-0.692635,-16.845997,-28.180296,8.792128,,,,,,,5
1508446915.810060,2.984348,1.166864,-1.637748,-3.601725,-1.484131,0.070247,0.061549,-0.919523,0.388188,0.398778,-0.323977,-0.423161,-16.818047,-28.529825,7.643325,,,,,,,5
1508446915.830055,2.930626,1.221270,-1.638801,-2.007944,-3.561587,0.747298,0.071711,-0.939535,0.334860,0.500966,-0.263910,0.050943,-16.666874,-29.086388,5.604947,,,,,,,5
1508446915.850084,2.875167,1.244514,-1.688392,-0.398825,-5.895682,1.250727,0.084389,-0.947241,0.309215,0.622627,-0.633860,0.348027,-16.677202,-28.929159,6.339784,,,,,,,5
1508446915.870069,2.866637,1.259758,-1.799585,-0.403369,-4.912360,2.350249,0.083093,-0.952016,0.294551,0.738898,-0.920680,0.716038,-16.676348,-28.587978,7.735963,,,,,,,5
1508446915.890094,2.998941,1.300228,-1.973363,-2.271390,0.171977,2.982845,0.037999,-0.963619,0.264565,0.274745,-0.673130,0.648491,-17.748783,-27.664553,8.652822,,,,,,,5
1508446915.910119,-3.056449,1.375487,-2.171457,-4.311644,2.359663,1.862453,-0.016504,-0.980988,0.193367,0.115396,-0.480347,0.503044,-19.393005,-27.152754,6.469733,,,,,,,5
1508446915.930128,-2.740015,1.460852,-2.439833,-4.558480,2.433699,0.517829,-0.042888,-0.993962,0.100994,-0.012837,-0.047237,0.236576,-20.184830,-27.066994,3.894684,,,,,,,5
1508446915.950144,-1.859093,1.516112,2.993073,-3.966757,1.093550,0.450362,-0.052402,-0.998505,0.015540,0.074634,0.239380,0.198861,-20.603624,-27.031130,-0.163874,,,,,,,5
1508446915.970156,-0.894421,1.485312,2.036623,-3.088587,0.225459,0.839198,-0.066583,-0.996348,-0.053445,0.399988,0.275966,0.231317,-20.920105,-26.677572,-2.423723,,,,,,,5
1508446915.990166,-0.672873,1.433412,1.812469,-2.538182,-0.127034,0.979762,-0.085354,-0.990578,-0.107102,0.559154,0.299782,0.341675,-21.268652,-26.265467,-3.603881,,,,,,,5
1508446916.010180,-0.593761,1.383380,1.733627,-2.313604,0.218989,0.928640,-0.104243,-0.982489,-0.154431,0.543452,0.352911,0.415448,-21.903513,-25.466455,-5.187855,,,,,,,5
1508446916.030167,-0.539015,1.338517,1.689386,-2.008002,0.790812,0.753783,-0.118157,-0.973144,-0.197558,0.337747,0.390426,0.465700,-22.206999,-24.982784,-6.158558,,,,,,,5
1508446916.050196,-0.495437,1.301661,1.667043,-1.570403,1.291523,0.617227,-0.126412,-0.964001,-0.233927,0.194558,0.384396,0.513254,-22.408762,-24.529800,-7.166197,,,,,,,5
1508446916.070214,-0.442582,1.273049,1.649829,-1.312609,2.193216,0.287837,-0.125642,-0.956000,-0.265101,-0.115066,0.465048,0.696818,-22.466913,-23.769020,-9.246057,,,,,,,5
1508446916.090226,-0.353014,1.249677,1.615751,-1.251545,3.177296,-0.207086,-0.109121,-0.948883,-0.296165,-0.293589,0.505218,0.718757,-22.156691,-23.521982,-10.536392,,,,,,,5
1508446916.110237,-0.245870,1.230402,1.572116,-1.025390,3.203912,-0.459673,-0.081262,-0.942623,-0.323819,-0.365134,0.509609,0.709332,-21.551277,-23.376745,-12.012003,,,,,,,5
1508446916.130250,-0.159314,1.217301,1.534974,-0.568027,2.146534,-0.492898,-0.054918,-0.938169,-0.341795,-0.124953,0.590085,0.646025,-20.033297,-23.273451,-14.568172,,,,,,,5
1508446916.150262,-0.119533,1.214635,1.513772,0.032943,0.138451,-0.177486,-0.041580,-0.937242,-0.346191,0.178085,0.567735,0.551254,-19.481251,-23.319260,-15.228624,,,,,,,5
1508446916.170274,-0.160683,1.223437,1.528712,0.765663,-2.216179,0.396420,-0.054464,-0.940275,-0.336031,0.294912,0.573972,0.453539,-19.390110,-23.377956,-15.254932,,,,,,,5
1508446916.190264,-0.272590,1.245426,1.578941,1.510267,-3.555525,0.581495,-0.086061,-0.947533,-0.307856,0.647050,0.555000,0.047801,-20.701580,-23.496008,-13.213642,,,,,,,5
1508446916.210297,-0.380624,1.274834,1.629559,1.562853,-2.387923,0.011045,-0.108352,-0.956522,-0.270788,0.886093,0.320902,-0.472666,-21.689550,-23.719725,-11.052427,,,,,,,5
1508446916.230298,-0.392763,1.284865,1.626814,-0.344964,-0.081316,-0.239170,-0.107953,-0.959399,-0.260574,0.392728,-0.740399,-1.624787,-21.904249,-23.951618,-10.086727,,,,,,,5
1508446916.250324,-0.372744,1.286282,1.609818,0.515166,0.431194,-0.279596,-0.102220,-0.959798,-0.261417,-0.407790,-0.678050,-0.707669,-21.763731,-24.041531,-10.176591,,,,,,,5
1508446916.270333,-0.371551,1.307273,1.625306,1.112997,0.807681,-0.068881,-0.094572,-0.965478,-0.242710,-0.404879,-0.377417,-0.462154,-21.504293,-24.327873,-10.046795,,,,,,,5
1508446916.290327,-0.411492,1.326893,1.670614,1.275828,-0.125112,0.240534,-0.096591,-0.970403,-0.221333,-0.169308,0.223317,-0.224650,-21.430809,-24.477591,-9.837996,,,,,,,5
1508446916.310357,-0.490219,1.358048,1.753548,2.099958,0.392322,0.083757,-0.099412,-0.977454,-0.186280,0.011048,0.452903,0.569489,-21.561371,-24.720276,-8.901318,,,,,,,5
1508446916.330369,-0.595195,1.398866,1.864495,2.360674,-0.186982,-0.275477,-0.095922,-0.985256,-0.141664,0.041127,0.079769,0.934099,-21.477222,-25.118263,-7.938504,,,,,,,5
1508446916.350379,-0.788545,1.441733,2.051663,2.546971,-0.526619,-0.159204,-0.091294,-0.991683,-0.090721,-0.104705,-0.650804,0.827141,-21.391411,-25.492760,-6.909764,,,,,,,5
1508446916.370392,-0.993341,1.458774,2.239263,0.498194,-0.465697,-0.060012,-0.093663,-0.993732,-0.061025,-0.045452,-1.259472,-0.345637,-21.487152,-25.827873,-5.142119,,,,,,,5
1508446916.390398,-0.817117,1.465918,2.103272,-0.603724,2.683484,-1.014349,-0.076335,-0.994505,-0.071640,0.160045,-0.262987,0.076599,-21.283665,-25.948563,-5.375487,,,,,,,5
1508446916.410414,-0.603519,1.466482,1.918856,-0.599456,0.603375,-0.424953,-0.059096,-0.994564,-0.085731,0.211500,0.120693,0.513816,-20.499163,-26.275206,-6.679528,,,,,,,5
1508446916.430428,-0.584438,1.457327,1.894747,-0.266082,-0.435993,0.419225,-0.062470,-0.993569,-0.094433,0.168824,0.486276,0.796963,-20.333229,-26.274723,-7.170555,,,,,,,5
1508446916.450439,-0.702662,1.457196,2.008122,0.837876,-0.167708,0.447706,-0.073257,-0.993554,-0.086505,0.176955,0.733209,0.856036,-20.649321,-26.080297,-6.974360,,,,,,,5
1508446916.470443,-0.931454,1.481179,2.243428,2.152957,0.559386,-0.436339,-0.071821,-0.995987,-0.053400,0.125699,0.759033,0.621790,-20.759716,-26.113703,-6.505906,,,,,,,5
1508446916.490464,-1.592277,1.516383,2.917346,3.066457,0.387077,-0.965560,-0.054374,-0.998520,0.001168,0.075752,0.381851,0.254325,-20.269630,-26.781113,-5.208856,,,,,,,5
1508446916.510475,-2.557738,1.494090,-2.410686,2.995694,-1.308876,-0.200810,-0.042243,-0.997059,0.063937,-0.016412,-0.264232,-0.327884,-19.863390,-27.364594,-3.441360,,,,,,,5
1508446916.530470,-2.768051,1.444185,-2.236820,2.421861,-1.907254,0.541451,-0.046079,-0.991996,0.117565,-0.035724,-0.521051,-0.484524,-19.891695,-27.459763,-2.345211,,,,,,,5
1508446916.550495,-2.840258,1.400507,-2.196239,1.989689,-1.362824,0.320023,-0.050297,-0.985536,0.161832,0.146519,-0.028884,0.305438,-20.319658,-27.236841,0.695683,,,,,,,5
1508446916.570511,-2.898972,1.368791,-2.153745,1.401247,-0.569409,-0.114391,-0.048202,-0.979666,0.194758,0.118407,0.129935,0.277395,-20.384460,-27.137468,1.802721,,,,,,,5
1508446916.590497,-2.956301,1.347435,-2.100854,1.099183,-0.145389,-0.421081,-0.040809,-0.975158,0.217717,0.036872,0.294632,0.141048,-20.320286,-27.125364,2.553193,,,,,,,5
1508446916.610534,-3.017683,1.323796,-2.039688,1.450795,-0.155618,-0.558732,-0.030218,-0.969650,0.242622,-0.006983,0.204193,-0.099968,-19.953228,-27.278378,3.602344,,,,,,,5
1508446916.630546,-3.078949,1.289680,-1.986712,1.900242,-0.719637,-0.468140,-0.017368,-0.960746,0.276884,-0.018841,0.076286,-0.190977,-19.621483,-27.360731,4.648216,,,,,,,5
1508446916.650556,-3.117030,1.252116,-1.964646,1.830439,-0.843641,-0.092955,-0.007695,-0.949650,0.313219,-0.039210,-0.125713,-0.218828,-19.401442,-27.325356,5.668082,,,,,,,5
1508446916.670567,-3.127118,1.219015,-1.967958,1.531730,-0.531370,0.149707,-0.004987,-0.938760,0.344535,-0.132571,-0.042243,-0.017737,-19.265739,-27.050079,7.234822,,,,,,,5
1508446916.690582,-3.130596,1.192453,-1.971635,1.214556,-0.254453,0.001428,-0.004062,-0.929278,0.369359,-0.141904,-0.004392,-0.023656,-19.269865,-26.845537,7.950320,,,,,,,5
1508446916.710584,-3.141420,1.170385,-1.962799,1.059432,-0.067184,-0.240343,-0.000067,-0.920901,0.389797,-0.036950,-0.013700,-0.095150,-19.238115,-26.695354,8.512994,,,,,,,5
1508446916.730607,3.130038,1.150604,-1.950822,0.934798,-0.050019,-0.211546,0.004714,-0.913010,0.407909,0.099641,-0.027740,-0.154033,-19.040552,-26.542767,9.389202,,,,,,,5
1508446916.750616,3.121842,1.132923,-1.946371,0.898455,-0.354302,-0.043847,0.008374,-0.905655,0.423932,0.127307,-0.013870,-0.194531,-18.959341,-26.461369,9.775356,,,,,,,5
1508446916.770612,3.109449,1.109897,-1.950612,1.348952,-1.130546,0.115803,0.014293,-0.895653,0.444524,0.159031,0.040581,-0.304723,-18.887335,-26.336542,10.240765,,,,,,,5
1508446916.790645,3.084370,1.076995,-1.959787,1.799704,-1.928524,0.135956,0.027107,-0.880537,0.473201,0.180397,-0.039323,-0.353114,-18.557732,-25.804638,12.039494,,,,,,,5
1508446916.810652,3.049276,1.039725,-1.970053,1.869173,-2.316445,0.097905,0.046688,-0.862265,0.504301,0.167560,-0.268365,-0.334516,-18.076544,-25.280178,13.761152,,,,,,,5
1508446916.830663,3.013524,1.006671,-1.979309,1.486865,-1.970141,0.035386,0.068289,-0.845057,0.530298,0.032648,-0.436605,-0.244623,-17.608631,-24.867491,15.058624,,,,,,,5
1508446916.850677,2.992446,0.985955,-1.986754,0.786718,-0.957166,0.093192,0.082034,-0.833800,0.545938,-0.301501,-0.447023,-0.179117,-16.951658,-24.329687,16.611015,,,,,,,5
1508446916.870682,2.993185,0.977617,-1.993352,0.263351,0.160721,0.103559,0.082656,-0.829168,0.552855,-0.508773,-0.424281,-0.262587,-16.826361,-24.140165,17.010115,,,,,,,5
1508446916.890698,3.003719,0.978056,-1.992169,-0.223109,0.710456,-0.127896,0.076777,-0.829413,0.553334,-0.683970,-0.527520,-0.671087,-16.947411,-24.044014,17.026121,,,,,,,5
1508446916.910712,3.004310,0.989426,-1.982115,-0.810495,0.180485,-0.178929,0.075155,-0.835711,0.544003,-0.789663,-0.705244,-1.058316,-17.101860,-24.271608,16.541872,,,,,,,5
1508446916.930710,2.997033,1.012009,-1.977018,-1.366676,-0.145325,0.133527,0.076373,-0.847899,0.524628,-0.619586,-0.713274,-0.982346,-17.052839,-24.616018,16.077019,,,,,,,5
1508446916.950734,3.001997,1.048453,-1.968326,-2.118602,1.105677,-0.101718,0.069420,-0.866652,0.494059,0.045341,-0.577882,-0.642344,-17.131178,-24.951477,15.464950,,,,,,,5
1508446916.970748,2.988324,1.098508,-1.937239,-2.820157,-0.008518,-0.456523,0.069453,-0.890530,0.449593,0.397176,-0.456806,-0.364647,-17.328545,-25.887930,13.592455,,,,,,,5
1508446916.990759,2.933867,1.152528,-1.905305,-2.553899,-1.800224,0.014937,0.083768,-0.913794,0.397447,0.384890,-0.273981,0.142165,-16.949860,-26.733229,12.379613,,,,,,,5
1508446917.010770,2.882333,1.189455,-1.901876,-1.353240,-2.842274,0.527684,0.095410,-0.928166,0.359728,0.399463,-0.440120,0.402754,-16.645840,-27.105551,11.975948,,,,,,,5
1508446917.030757,2.852657,1.210994,-1.933242,-0.748477,-2.645164,1.087556,0.100321,-0.935966,0.337494,0.111501,-0.848900,0.688156,-16.202187,-27.191235,12.383221,,,,,,,5
1508446917.050794,2.896742,1.244776,-2.007453,-1.856335,-0.361795,1.950034,0.077638,-0.947324,0.310723,-0.083772,-0.754458,0.630302,-16.517384,-26.975519,12.438467,,,,,,,5
1508446917.070783,2.996064,1.314315,-2.089589,-3.898900,1.738177,1.567425,0.036787,-0.967289,0.250997,-0.323302,-0.467617,0.370692,-17.044744,-26.901152,11.875303,,,,,,,5
1508446917.090808,3.081048,1.402939,-2.126460,-4.392525,2.762784,0.426979,0.010109,-0.985945,0.166764,-0.393120,-0.161394,0.326751,-18.691519,-27.315895,7.725744,,,,,,,5
1508446917.110829,3.103303,1.482418,-2.095592,-3.691779,2.306837,-0.132961,0.003379,-0.996097,0.088199,-0.318381,-0.044873,0.328168,-19.100830,-27.768345,4.392654,,,,,,,5
1508446917.130841,3.129146,1.549748,-2.092710,-3.189316,1.072511,0.275921,0.000262,-0.999779,0.021045,-0.021487,0.042564,0.388104,-19.165165,-27.970640,2.357523,,,,,,,5
1508446917.150854,-0.299819,1.530533,1.357277,-2.871888,1.111349,0.797101,-0.011889,-0.999190,-0.038457,0.216265,0.242338,0.379506,-19.482763,-27.848337,-0.331810,,,,,,,5
1508446917.170865,-0.306042,1.473400,1.388109,-2.548638,1.292460,0.992625,-0.029298,-0.995261,-0.092724,0.233781,0.361899,0.427716,-19.951330,-27.417551,-2.332456,,,,,,,5
1508446917.190876,-0.307670,1.424692,1.416776,-2.113957,1.374482,0.818462,-0.044089,-0.989346,-0.138749,0.177130,0.384838,0.487625,-20.286554,-27.015141,-3.722373,,,,,,,5
1508446917.210889,-0.283109,1.383384,1.422429,-1.905031,1.608329,0.545807,-0.052046,-0.982490,-0.178901,0.084258,0.364982,0.552939,-20.614923,-26.387959,-5.823966,,,,,,,5
1508446917.230881,-0.236650,1.344873,1.411924,-1.884546,1.927250,0.308780,-0.052517,-0.974588,-0.217763,0.002530,0.352975,0.575017,-20.640381,-26.055540,-7.092366,,,,,,,5
1508446917.250912,-0.182348,1.307472,1.398463,-1.834409,2.105329,0.203918,-0.047201,-0.965530,-0.255976,-0.037714,0.374420,0.575633,-20.479048,-25.634819,-8.870333,,,,,,,5
1508446917.270924,-0.137717,1.273100,1.393498,-1.596857,1.858763,0.209952,-0.040267,-0.956015,-0.290541,0.020446,0.390341,0.558684,-20.096027,-25.085545,-11.049129,,,,,,,5
1508446917.290936,-0.114144,1.246722,1.398806,-1.092985,1.099196,0.285939,-0.036268,-0.947946,-0.316359,0.118299,0.403543,0.522582,-19.828686,-24.660740,-12.405212,,,,,,,5
1508446917.310947,-0.127321,1.232183,1.420271,-0.407131,-0.098592,0.538780,-0.042179,-0.943216,-0.329491,0.155949,0.417932,0.519890,-19.784084,-24.471029,-12.844328,,,,,,,5
1508446917.330960,-0.182510,1.232080,1.462670,0.407510,-1.131857,0.771514,-0.060308,-0.943182,-0.326758,0.273138,0.452154,0.522696,-20.282089,-24.014402,-12.929168,,,,,,,5
1508446917.350972,-0.274673,1.244085,1.524534,1.011434,-1.956146,0.885545,-0.087046,-0.947103,-0.308900,0.358928,0.458425,0.490861,-20.830463,-23.876831,-12.296618,,,,,,,5
1508446917.370984,-0.388083,1.261154,1.602058,1.285143,-1.844995,0.814421,-0.115310,-0.952443,-0.282058,0.412689,0.454014,0.443328,-21.488623,-23.774658,-11.323550,,,,,,,5
1508446917.390886,-0.488291,1.280442,1.681313,1.417124,-0.792190,0.540537,-0.134304,-0.958143,-0.252834,0.240841,0.192380,0.100277,-22.557156,-23.661860,-9.301036,,,,,,,5
1508446917.410914,-0.551562,1.297426,1.749888,0.981209,0.782770,0.337958,-0.141474,-0.962866,-0.229942,-0.132864,-0.346704,-0.517052,-22.788511,-23.684124,-8.658188,,,,,,,5
1508446917.430920,-0.539733,1.300057,1.775402,-0.118015,2.372882,0.115009,-0.137441,-0.963573,-0.229426,-0.430140,-0.757771,-0.930303,-22.809752,-23.690933,-8.583298,,,,,,,5
1508446917.450939,-0.460490,1.296139,1.754431,-0.341257,3.089708,-0.293024,-0.120525,-0.962518,-0.242965,-0.351704,-0.238409,-0.708588,-22.146427,-23.636253,-10.299587,,,,,,,5
1508446917.470950,-0.370172,1.292728,1.719460,-0.306811,2.662312,-0.384631,-0.099307,-0.961588,-0.255905,-0.333936,-0.028830,-0.547928,-21.540173,-23.687136,-11.408712,,,,,,,5
1508446917.490948,-0.291323,1.294310,1.686467,0.145098,2.163426,-0.502659,-0.078404,-0.962020,-0.261475,-0.267161,0.329605,-0.201415,-20.927652,-23.757145,-12.363235,,,,,,,5
1508446917.510974,-0.227154,1.312306,1.659381,1.179365,1.718473,-0.603062,-0.057567,-0.966777,-0.249054,0.017391,0.460231,0.492035,-19.728090,-24.197329,-13.435398,,,,,,,5
1508446917.530986,-0.206203,1.346723,1.647869,1.869033,-0.616115,-0.379797,-0.045495,-0.975001,-0.217495,0.178384,0.143747,0.569531,-19.169447,-24.807510,-13.127747,,,,,,,5
1508446917.550976,-0.291630,1.394388,1.682733,2.784806,-3.429151,-0.235948,-0.050457,-0.984480,-0.168084,0.285412,-0.181306,0.562860,-19.220556,-25.122099,-12.436580,,,,,,,5
1508446917.571009,-0.335291,1.437377,1.679482,1.199438,-0.606476,-1.065689,-0.043771,-0.991113,-0.125617,0.696572,-1.344336,-0.146020,-19.845009,-26.130236,-8.865923,,,,,,,5
1508446917.591018,-0.218060,1.447329,1.580612,-0.155031,0.888743,-0.212231,-0.026643,-0.992388,-0.120237,0.657593,-0.318113,0.325499,-19.374115,-26.550760,-8.655572,,,,,,,5
1508446917.611032,-0.311518,1.441956,1.671127,0.120584,-0.842020,0.979120,-0.039381,-0.991711,-0.122300,0.534880,-0.050738,0.386873,-19.173038,-26.601423,-8.942984,,,,,,,5
1508446917.631045,-0.544040,1.443962,1.880075,0.927554,-1.272043,1.164333,-0.065473,-0.991967,-0.108232,0.301756,0.584420,0.669587,-20.152374,-26.094536,-8.256824,,,,,,,5
1508446917.651052,-0.769793,1.451643,2.097355,1.129158,0.247916,0.519782,-0.082733,-0.992910,-0.085356,0.073898,0.867833,0.914641,-20.689543,-25.893936,-7.527604,,,,,,,5
1508446917.671067,-0.855642,1.470569,2.231397,1.305120,3.657125,-0.614399,-0.075544,-0.994981,-0.065613,-0.060518,0.857134,1.023514,-20.853212,-25.860142,-7.184340,,,,,,,5
1508446917.691057,-1.051811,1.510238,2.516140,2.293649,4.189539,-1.018955,-0.052552,-0.998167,-0.030019,-0.409637,-0.000414,0.302388,-19.527525,-26.604101,-8.131153,,,,,,,5
1508446917.711092,-1.802922,1.519730,-3.003754,1.750833,-1.985049,0.629702,-0.049675,-0.998696,0.011743,-0.875420,-0.568442,-0.853158,-18.898479,-27.173113,-7.725770,,,,,,,5
1508446917.731104,-2.212082,1.490518,-2.643936,1.838238,-1.525758,0.443376,-0.064260,-0.996779,0.047973,-0.344492,-0.172135,0.012101,-19.528971,-27.097742,-6.288870,,,,,,,5
1508446917.751116,-2.563531,1.468603,-2.292448,1.712851,0.158031,-0.791489,-0.055742,-0.994783,0.085441,0.004121,0.016099,-0.025062,-19.702303,-27.312906,-4.587218,,,,,,,5
1508446917.771128,-2.781098,1.453190,-2.080965,0.932187,-0.619058,-0.452479,-0.041388,-0.993092,0.109793,0.033759,0.062047,-0.020377,-19.292233,-27.730473,-3.748178,,,,,,,5
1508446917.791119,-2.845173,1.438516,-2.025653,0.816190,-0.301790,0.031262,-0.038526,-0.991264,0.126143,0.164457,0.138679,-0.111570,-19.214594,-27.830927,-3.384818,,,,,,,5
1508446917.811152,-2.885047,1.420136,-1.991063,1.035658,-0.379640,-0.021287,-0.038084,-0.988672,0.145179,0.242781,0.188089,-0.004798,-19.242899,-27.906919,-2.476437,,,,,,,5
1508446917.831163,-2.944381,1.398099,-1.945685,1.226756,-0.896533,-0.163841,-0.033670,-0.985125,0.168509,0.229318,0.179079,0.067712,-19.237415,-27.957886,-1.869919,,,,,,,5
1508446917.851176,-3.012572,1.371717,-1.895155,1.461206,-0.875844,-0.287530,-0.025445,-0.980249,0.196123,0.205789,0.121652,0.193251,-19.188366,-28.032448,-1.098449,,,,,,,5
1508446917.871187,-3.065798,1.341958,-1.852518,1.539724,-0.344704,-0.283286,-0.017177,-0.973931,0.226195,0.013653,0.034539,0.202776,-18.956903,-28.204754,0.588004,,,,,,,5
1508446917.891199,-3.087558,1.311655,-1.828255,1.513603,0.335658,-0.153088,-0.013840,-0.966610,0.255876,-0.121369,-0.020710,0.007078,-18.827230,-28.258507,1.486718,,,,,,,5
1508446917.911187,-3.095336,1.283595,-1.810888,1.339003,0.422738,-0.188535,-0.013098,-0.959040,0.282966,-0.157022,-0.099309,-0.154075,-18.774530,-28.262117,1.996977,,,,,,,5
1508446917.931223,-3.108566,1.259173,-1.791403,1.181688,0.185622,-0.274128,-0.010124,-0.951837,0.306437,-0.033455,-0.085333,-0.079187,-18.648607,-28.282639,2.745887,,,,,,,5
1508446917.951217,-3.130028,1.237024,-1.768154,1.078730,-0.093019,-0.378469,-0.003789,-0.944813,0.327588,0.121678,-0.027111,-0.039929,-18.525566,-28.315838,3.199190,,,,,,,5
1508446917.971245,3.124371,1.214929,-1.744811,1.156683,-0.502102,-0.390911,0.006000,-0.937345,0.348352,0.198117,0.001920,-0.103509,-18.297915,-28.380720,3.865108,,,,,,,5
1508446917.991259,3.094266,1.187118,-1.729327,1.550646,-0.928954,-0.272990,0.017709,-0.927294,0.373914,0.168967,-0.051420,-0.223310,-17.970634,-28.407116,5.030931,,,,,,,5
1508446918.011270,3.070224,1.150045,-1.728588,1.998631,-1.303273,-0.009777,0.029126,-0.912782,0.407406,-0.013241,-0.194349,-0.387265,-17.740032,-28.276382,6.399667,,,,,,,5
1508446918.031280,3.055071,1.110404,-1.744329,1.912028,-1.550846,0.266154,0.038394,-0.895878,0.442638,-0.092791,-0.216884,-0.503917,-17.626167,-28.043327,7.622878,,,,,,,5
1508446918.051294,3.037449,1.080146,-1.761206,1.294668,-1.636870,0.180072,0.048984,-0.882026,0.468647,-0.171664,-0.153923,-0.466740,-17.460838,-27.555193,9.541934,,,,,,,5
1508446918.071305,3.013518,1.059832,-1.767204,0.920113,-1.308149,-0.048497,0.062460,-0.872273,0.485013,-0.256521,-0.270686,-0.434415,-17.193914,-27.300245,10.690372,,,,,,,5
1508446918.091289,2.993031,1.045879,-1.767124,0.481311,-0.842827,-0.109263,0.074177,-0.865365,0.495622,-0.380527,-0.450888,-0.647065,-16.966217,-27.178823,11.343599,,,,,,,5
1508446918.111315,2.980653,1.047244,-1.762632,-0.442208,-0.144318,-0.089739,0.080116,-0.866048,0.493499,-0.512245,-0.735316,-0.751068,-16.699432,-27.152014,11.794713,,,,,,,5
1508446918.131341,2.979715,1.064508,-1.755991,-1.075153,0.395050,0.033213,0.078158,-0.874550,0.478595,-0.534243,-0.761619,-0.678119,-16.695049,-27.336672,11.366612,,,,,,,5
1508446918.151329,2.977300,1.094148,-1.746979,-1.823421,0.146611,-0.038101,0.075040,-0.888538,0.452626,-0.340222,-0.598111,-0.700337,-16.778931,-27.525291,10.772376,,,,,,,5
1508446918.171359,2.950408,1.137591,-1.717974,-2.365749,-0.149520,-0.349448,0.079768,-0.907625,0.412134,0.261052,-0.337630,-0.116480,-16.710205,-28.083164,9.344681,,,,,,,5
1508446918.191376,2.904566,1.178919,-1.682187,-2.003705,-1.066708,-0.104391,0.089681,-0.924194,0.371245,0.277125,-0.245484,0.133882,-16.452068,-28.587650,8.203286,,,,,,,5
1508446918.211386,2.872708,1.214587,-1.678181,-1.591729,-1.431835,0.654702,0.092641,-0.937226,0.336193,0.214915,-0.361587,0.401722,-16.338593,-28.792578,7.697798,,,,,,,5
1508446918.231381,2.879281,1.245766,-1.711839,-1.234999,-1.126548,1.090297,0.082809,-0.947641,0.308414,0.040345,-0.659018,0.516979,-16.640287,-28.753220,7.181314,,,,,,,5
1508446918.251400,2.924555,1.278275,-1.773497,-1.590523,-0.326357,1.412715,0.062097,-0.957520,0.281602,-0.190698,-0.605163,0.455992,-17.214979,-28.518074,6.751447,,,,,,,5
1508446918.271422,2.998789,1.332609,-1.840996,-3.112358,0.965573,1.221188,0.033579,-0.971767,0.233540,-0.332926,-0.378727,0.275157,-17.820593,-28.327211,5.934115,,,,,,,5
1508446918.291436,3.066351,1.408066,-1.876806,-3.867508,1.899311,0.485246,0.012179,-0.986789,0.161555,-0.283556,-0.194425,0.205755,-18.683361,-28.234678,2.992178,,,,,,,5
1508446918.311446,3.096827,1.479185,-1.868912,-3.273613,1.784841,0.042869,0.004094,-0.995807,0.091391,-0.055470,-0.052579,0.236505,-18.879152,-28.250584,0.836833,,,,,,,5
1508446918.331457,-3.137936,1.539432,-1.898722,-2.941158,0.500022,0.265044,-0.000115,-0.999508,0.031359,-0.008644,0.017254,0.355482,-18.904661,-28.226662,-1.042805,,,,,,,5
1508446918.351472,-0.414932,1.542015,1.679448,-3.000976,1.052306,0.826088,-0.011601,-0.999586,-0.026335,0.104512,0.258344,0.353453,-19.125782,-27.818014,-3.947221,,,,,,,5
1508446918.371482,-0.366961,1.481337,1.659602,-2.517246,1.487569,1.118956,-0.032054,-0.996001,-0.083392,0.248088,0.255446,0.245441,-19.451757,-27.314358,-5.547349,,,,,,,5
1508446918.391493,-0.392244,1.434712,1.709297,-1.842983,1.126884,1.062494,-0.051860,-0.990755,-0.125362,0.266215,0.303056,0.294978,-19.771471,-26.745272,-6.999825,,,,,,,5
1508446918.411507,-0.363044,1.395992,1.707863,-1.865683,1.595591,0.514318,-0.061761,-0.984761,-0.162579,0.041101,0.209187,0.470578,-20.211765,-25.722038,-9.223854,,,,,,,5
1508446918.431519,-0.294057,1.354915,1.677476,-2.125473,2.148634,0.351815,-0.062086,-0.976788,-0.205014,0.037092,0.179333,0.458081,-20.124041,-25.300074,-10.495115,,,,,,,5
1508446918.451519,-0.233726,1.310835,1.660285,-2.169185,2.082974,0.403577,-0.059532,-0.966400,-0.250054,0.038902,0.216583,0.418389,-19.898773,-24.835926,-11.934559,,,,,,,5
1508446918.471544,-0.201180,1.269540,1.661599,-1.884723,1.387343,0.502291,-0.059292,-0.954964,-0.290736,0.129605,0.357949,0.347376,-19.414730,-23.742767,-14.648117,,,,,,,5
1508446918.491553,-0.203244,1.236505,1.678099,-1.337061,0.200851,0.623036,-0.066226,-0.944643,-0.321347,0.173572,0.381639,0.338345,-19.375904,-23.008768,-15.823689,,,,,,,5
1508446918.511559,-0.237466,1.218599,1.702672,-0.420667,-0.966330,0.549862,-0.081149,-0.938617,-0.335280,0.273150,0.386295,0.285491,-19.615932,-22.555729,-16.176296,,,,,,,5
1508446918.531572,-0.292370,1.218362,1.730537,0.393348,-1.614168,0.421934,-0.099490,-0.938535,-0.330535,0.368258,0.294919,0.260589,-20.370243,-22.214523,-15.709433,,,,,,,5
1508446918.551589,-0.354312,1.227945,1.762969,0.692604,-1.469058,0.344658,-0.116634,-0.941800,-0.315293,0.393535,0.281934,0.268235,-21.034853,-22.221895,-14.796635,,,,,,,5
1508446918.571600,-0.404513,1.237057,1.792820,0.522089,-0.845691,0.255348,-0.128925,-0.944824,-0.301141,0.353413,0.325546,0.264566,-21.433125,-22.264137,-14.147350,,,,,,,5
1508446918.591614,-0.432847,1.242443,1.813482,0.321764,-0.235050,0.167912,-0.135269,-0.946575,-0.292744,0.275405,0.328807,0.219807,-21.796988,-22.299088,-13.522580,,,,,,,5
1508446918.611609,-0.447428,1.247793,1.826354,0.363538,-0.097604,-0.013711,-0.137329,-0.948286,-0.286171,0.224335,0.316115,0.197059,-21.878016,-22.316870,-13.361433,,,,,,,5
1508446918.631636,-0.447613,1.257748,1.826714,0.502376,0.124347,-0.317978,-0.133290,-0.951399,-0.277621,0.104191,0.230803,0.178561,-21.890575,-22.395473,-13.208467,,,,,,,5
1508446918.651648,-0.431500,1.270723,1.819898,0.536220,0.727587,-0.359832,-0.123626,-0.955315,-0.268496,-0.151002,-0.038841,-0.071225,-21.594511,-22.797539,-13.006435,,,,,,,5
1508446918.671645,-0.402281,1.280899,1.812067,0.322844,1.287843,-0.275991,-0.111917,-0.958273,-0.263034,-0.285865,-0.168466,-0.275678,-21.305553,-23.005239,-13.116808,,,,,,,5
1508446918.691671,-0.363849,1.285355,1.803357,0.085025,1.578457,-0.141447,-0.100207,-0.959537,-0.263147,-0.329190,-0.203076,-0.388983,-20.955051,-23.156490,-13.411970,,,,,,,5
1508446918.711684,-0.337484,1.287903,1.809389,0.223875,1.678344,0.190911,-0.092426,-0.960252,-0.263389,0.163669,0.113252,-0.298271,-20.237856,-23.270329,-14.287729,,,,,,,5
1508446918.731695,-0.298952,1.292816,1.822859,0.022458,3.216590,-0.146048,-0.080820,-0.961612,-0.262243,0.081186,-0.225782,-0.276713,-19.681391,-23.298267,-15.001721,,,,,,,5
1508446918.751706,-0.221209,1.281481,1.798076,-1.040786,2.298277,-0.134224,-0.062596,-0.958440,-0.278344,-0.062037,-0.486278,-0.749671,-19.154303,-23.318415,-15.639130,,,,,,,5
1508446918.771715,-0.179102,1.254570,1.788717,-1.313657,1.377832,0.298308,-0.055400,-0.950416,-0.306008,0.144908,-0.543923,-0.636268,-18.046526,-22.813734,-17.580517,,,,,,,5
1508446918.791731,-0.180707,1.241061,1.814809,-0.009750,1.036230,0.629301,-0.058194,-0.946128,-0.318520,0.503171,-0.622445,0.254372,-17.835333,-22.415634,-18.293674,,,,,,,5
1508446918.811719,-0.196092,1.252114,1.856057,0.849588,1.339125,0.492883,-0.061046,-0.949649,-0.307311,0.387233,-0.494611,0.646789,-17.747797,-22.246637,-18.582815,,,,,,,5
1508446918.831758,-0.205872,1.257589,1.891791,-0.106559,1.148611,0.549796,-0.062985,-0.951350,-0.301605,0.042187,0.047343,0.623764,-17.386408,-22.352215,-18.796528,,,,,,,5
1508446918.851760,-0.209580,1.247738,1.923542,-0.171507,1.261136,0.516338,-0.066049,-0.948269,-0.310522,0.113305,0.137249,0.510580,-17.228983,-22.100521,-19.234011,,,,,,,5
1508446918.871776,-0.243492,1.265567,1.956076,1.616955,-1.157830,0.169388,-0.072452,-0.953778,-0.291648,0.050479,0.248990,0.184577,-17.074160,-21.985889,-19.501587,,,,,,,5
1508446918.891771,-0.282195,1.290030,1.981757,0.902228,-0.202806,0.057736,-0.077160,-0.960843,-0.266132,-0.255390,0.200742,0.591983,-17.532276,-22.610023,-18.347324,,,,,,,5
1508446918.911802,-0.301152,1.305930,2.004735,0.952004,0.379277,0.043680,-0.077649,-0.965128,-0.249999,-0.160296,0.325662,0.527694,-17.572933,-22.818455,-18.047945,,,,,,,5
1508446918.931814,-0.323735,1.328957,2.040450,1.372296,0.601426,0.142080,-0.076184,-0.970899,-0.227048,0.031445,0.104108,0.163404,-17.434772,-23.167337,-17.734747,,,,,,,5
1508446918.951830,-0.371864,1.353813,2.098729,1.327590,0.356270,0.204345,-0.078224,-0.976551,-0.200571,0.057625,0.009968,0.103143,-17.303244,-23.699295,-17.151073,,,,,,,5
1508446918.971839,-0.423703,1.374822,2.155469,1.165152,0.007324,0.036641,-0.080058,-0.980859,-0.177503,0.056742,-0.057533,0.052869,-17.289387,-23.970009,-16.784927,,,,,,,5
1508446918.991849,-0.475867,1.397316,2.205891,1.230414,-0.217264,-0.077983,-0.079075,-0.984990,-0.153434,0.070729,-0.002712,-0.020455,-17.295755,-24.356796,-16.211765,,,,,,,5
1508446919.011862,-0.561266,1.419277,2.285226,1.301622,-0.445213,0.061914,-0.080339,-0.988543,-0.127784,0.076326,0.070849,0.003058,-17.379293,-24.864372,-15.327797,,,,,,,5
1508446919.031873,-0.702757,1.442263,2.416330,1.557274,-0.685420,0.065972,-0.082846,-0.991751,-0.097809,0.069097,0.055899,-0.025482,-17.512966,-25.156677,-14.685224,,,,,,,5
1508446919.051885,-0.934937,1.460023,2.633453,1.516535,-0.965017,0.304992,-0.088942,-0.993871,-0.065650,0.072630,0.061330,-0.061623,-17.688698,-25.465740,-13.922076,,,,,,,5
1508446919.071898,-1.207457,1.470419,2.890089,1.324077,-0.788204,0.105494,-0.093667,-0.994966,-0.035614,0.080209,0.084734,0.016098,-18.226107,-25.922642,-12.289988,,,,,,,5
1508446919.091908,-1.449002,1.479307,3.121154,1.108529,-0.478330,-0.324078,-0.090685,-0.995818,-0.011100,-0.026594,0.182982,0.036002,-18.351711,-26.147739,-11.607264,,,,,,,5
1508446919.111920,-1.700242,1.485823,-2.917613,1.056196,-0.346384,-0.270108,-0.084161,-0.996392,0.010956,-0.171210,0.102456,0.101227,-18.287472,-26.513157,-10.855369,,,,,,,5
1508446919.131919,-1.958809,1.483045,-2.666574,1.112362,-0.493398,-0.075972,-0.081124,-0.996152,0.033158,-0.216438,0.236097,0.027084,-18.242050,-26.889658,-9.969551,,,,,,,5
1508446919.151944,-2.196122,1.471076,-2.438735,1.278270,-0.518571,0.041436,-0.080716,-0.995032,0.058275,-0.115237,0.156684,-0.021700,-18.299532,-27.068800,-9.360840,,,,,,,5
1508446919.171947,-2.384944,1.453378,-2.259286,1.276256,-0.534721,-0.020348,-0.080421,-0.993114,0.085183,-0.004632,0.056698,-0.099740,-18.385654,-27.231493,-8.696648,,,,,,,5
1508446919.191952,-2.522313,1.436868,-2.129289,1.070807,-0.306532,-0.112375,-0.077506,-0.991045,0.108732,0.032508,-0.011030,-0.110181,-18.466539,-27.557238,-7.402958,,,,,,,5
1508446919.211980,-2.606374,1.420257,-2.048067,0.995953,-0.182742,0.036165,-0.076490,-0.988690,0.128999,0.017118,-0.033786,-0.155183,-18.456213,-27.692289,-6.908218,,,,,,,5
1508446919.231976,-2.659956,1.400726,-2.002045,1.100084,-0.611205,0.225281,-0.078402,-0.985573,0.149997,-0.044995,0.001457,-0.191852,-18.518934,-27.801661,-6.271752,,,,,,,5
1508446919.252000,-2.721994,1.373907,-1.960564,1.534882,-1.328554,0.212356,-0.079694,-0.980680,0.178650,0.111371,-0.037448,-0.274948,-18.793915,-27.865320,-5.052807,,,,,,,5
1508446919.272016,-2.802479,1.341818,-1.912211,1.732347,-1.818877,0.074134,-0.075506,-0.973899,0.214056,0.063497,-0.154260,-0.309301,-19.012363,-27.947533,-3.561393,,,,,,,5
1508446919.292025,-2.879959,1.309997,-1.870985,1.578148,-1.823418,-0.032552,-0.066696,-0.966184,0.249078,-0.076996,-0.301974,-0.374413,-19.110014,-28.012846,-2.303453,,,,,,,5
1508446919.312040,-2.924696,1.285402,-1.856058,0.978021,-1.241238,0.186531,-0.060587,-0.959551,0.274939,-0.126028,-0.254164,-0.511313,-19.187952,-28.050255,-0.473150,,,,,,,5
1508446919.332046,-2.926838,1.276845,-1.866499,0.023479,-0.226163,0.198584,-0.061745,-0.957107,0.283080,-0.007057,-0.131928,-0.528609,-19.287271,-27.985773,0.125839,,,,,,,5
1508446919.352062,-2.914466,1.284656,-1.875330,-0.571629,0.340698,-0.012460,-0.063557,-0.959340,0.275003,0.118672,-0.257701,-0.571069,-19.371683,-27.927349,0.138376,,,,,,,5
1508446919.372076,-2.900245,1.297689,-1.885318,-0.700287,0.104813,-0.045642,-0.064467,-0.962937,0.261908,-0.025849,-0.371062,-0.667791,-19.365957,-27.928446,-0.423928,,,,,,,5
1508446919.392074,-2.907868,1.314058,-1.883061,-0.889004,-0.460236,-0.345756,-0.058810,-0.967223,0.247023,-0.086957,-0.350510,-0.689101,-19.321587,-27.953392,-0.708766,,,,,,,5
1508446919.412097,-2.945528,1.335715,-1.856255,-1.053339,-0.619679,-0.700728,-0.045376,-0.972495,0.228459,-0.119267,-0.382790,-0.608189,-19.182919,-28.041653,-0.948440,,,,,,,5
1508446919.432111,-3.007482,1.364270,-1.801702,-1.488736,-0.316095,-0.836121,-0.027419,-0.978749,0.203220,-0.048234,-0.514522,-0.301960,-18.604925,-28.399359,-1.597289,,,,,,,5
1508446919.452122,-3.066483,1.400179,-1.746102,-1.834207,-0.188636,-0.590791,-0.012741,-0.985480,0.169312,-0.180252,-0.350091,-0.031845,-18.272175,-28.574175,-2.205091,,,,,,,5
1508446919.472134,-3.104283,1.437928,-1.712377,-1.844380,-0.285087,-0.225740,-0.004942,-0.991186,0.132385,-0.370257,-0.339945,0.173782,-17.971851,-28.671001,-3.194417,,,,,,,5
1508446919.492144,-3.129363,1.475704,-1.691117,-1.965810,-0.057813,-0.262772,-0.001161,-0.995482,0.094942,-0.381560,-0.106141,0.214994,-17.887787,-28.634033,-3.916304,,,,,,,5
1508446919.512158,2.964811,1.516744,-1.489416,-2.144470,1.100755,-0.718017,0.009501,-0.998540,0.053184,-0.305415,-0.234676,0.078500,-17.561810,-28.536787,-5.696733,,,,,,,5
1508446919.532146,1.977571,1.546349,-0.465998,-2.268676,2.125273,-0.613922,0.022450,-0.999701,0.009672,-0.342900,-0.230249,0.005496,-17.274956,-28.533510,-6.529386,,,,,,,5
1508446919.552172,0.698793,1.523734,0.864917,-2.407089,2.807742,-0.202492,0.030264,-0.998893,-0.036019,-0.144674,-0.325189,-0.050499,-16.272793,-28.260208,-9.579931,,,,,,,5
1508446919.572193,0.377701,1.481045,1.242188,-2.457597,2.569913,0.131241,0.033054,-0.995975,-0.083313,0.060741,-0.300137,0.005264,-15.633250,-27.754713,-11.853080,,,,,,,5
1508446919.592205,0.249641,1.436645,1.414725,-2.366017,1.976592,0.294454,0.033043,-0.991015,-0.129603,0.417686,-0.111982,0.155985,-15.250177,-27.253241,-13.413095,,,,,,,5
1508446919.612200,0.167492,1.393384,1.530835,-2.250086,1.421739,0.524976,0.029421,-0.984304,-0.174013,0.181837,0.065130,0.197771,-14.819260,-26.269684,-15.668803,,,,,,,5
1508446919.632229,0.094644,1.352182,1.623641,-2.082694,0.538221,0.648135,0.020495,-0.976199,-0.215907,0.104672,0.117617,0.236735,-14.744803,-25.598803,-16.808041,,,,,,,5
1508446919.652239,0.045816,1.314197,1.675420,-1.856102,-0.106759,0.337548,0.011624,-0.967259,-0.253526,0.075534,0.233387,0.308519,-14.845072,-24.917700,-17.718639,,,,,,,5
1508446919.672253,0.015741,1.280604,1.702819,-1.597352,-0.172726,0.347087,0.004504,-0.958189,-0.286101,-0.059878,0.354963,0.376967,-15.168037,-23.751383,-19.000540,,,,,,,5
1508446919.692245,-0.007578,1.250719,1.728824,-1.426291,0.280011,0.425503,-0.002384,-0.949211,-0.314631,-0.137050,0.335838,0.382822,-15.323450,-23.218422,-19.527287,,,,,,,5
1508446919.712261,-0.028123,1.224143,1.762036,-1.270348,0.677992,0.640040,-0.009554,-0.940515,-0.339618,-0.118651,0.307535,0.391239,-15.390573,-22.695400,-20.081514,,,,,,,5
1508446919.732289,-0.045993,1.198808,1.797968,-1.232171,0.801387,0.692621,-0.016711,-0.931607,-0.363084,0.015658,0.307415,0.400391,-15.385420,-21.614079,-21.244730,,,,,,,5
1508446919.752273,-0.066435,1.174434,1.834409,-1.123603,0.573229,0.778524,-0.025629,-0.922471,-0.385214,0.049555,0.307313,0.435812,-15.371823,-21.055733,-21.807827,,,,,,,5
1508446919.772311,-0.088416,1.153720,1.866988,-0.917769,0.225411,0.685198,-0.035770,-0.914277,-0.403507,0.063510,0.273637,0.417072,-15.442971,-20.339758,-22.428265,,,,,,,5
1508446919.792324,-0.118135,1.136322,1.894991,-0.727827,-0.460042,0.642593,-0.049611,-0.907091,-0.418000,0.076955,0.265185,0.433595,-15.758902,-19.579453,-22.880564,,,,,,,5
1508446919.812334,-0.152292,1.123362,1.915496,-0.479150,-0.921946,0.436671,-0.065635,-0.901560,-0.427647,0.048454,0.260172,0.457874,-15.874310,-19.445253,-22.915203,,,,,,,5
1508446919.832346,-0.186567,1.117023,1.928657,-0.124178,-1.246643,0.294551,-0.081310,-0.898800,-0.430753,0.121623,0.185207,0.474591,-16.738472,-18.868372,-22.782146,,,,,,,5
1508446919.852343,-0.226256,1.119139,1.940111,0.329742,-1.573368,0.194770,-0.097911,-0.899725,-0.425334,0.138438,0.187033,0.428614,-17.617092,-18.749140,-22.210941,,,,,,,5
1508446919.872372,-0.269143,1.129077,1.958832,0.865138,-1.324971,0.221737,-0.113673,-0.904018,-0.412104,0.145427,0.216365,0.295039,-18.152924,-18.802391,-21.729237,,,,,,,5
1508446919.892382,-0.313582,1.153583,1.983790,1.609426,-0.915774,0.087644,-0.124996,-0.914222,-0.385454,-0.088017,0.014853,0.077760,-18.766075,-19.128021,-20.908642,,,,,,,5
1508446919.912371,-0.357520,1.189597,2.021106,2.018838,-0.117945,0.154447,-0.130194,-0.928219,-0.348510,-0.407190,-0.199299,-0.654741,-19.185677,-19.976549,-19.699375,,,,,,,5
1508446919.932406,-0.401855,1.217344,2.076862,1.306559,0.674071,0.515438,-0.135384,-0.938183,-0.318564,-0.459541,-0.256503,-0.828134,-19.245140,-20.563051,-19.026394,,,,,,,5
1508446919.952404,-0.427813,1.225226,2.125154,0.387202,1.162642,0.650895,-0.140534,-0.940883,-0.308205,-0.305450,-0.154103,-0.598717,-19.189140,-20.703133,-18.930805,,,,,,,5
1508446919.972426,-0.442154,1.222596,2.170884,0.158853,1.545805,0.822853,-0.145998,-0.939988,-0.308393,-0.109389,-0.177291,-0.264193,-18.938551,-20.525784,-19.371155,,,,,,,5
1508446919.992441,-0.454966,1.217011,2.213632,-0.012138,1.158728,0.685926,-0.152241,-0.938068,-0.311208,-0.129634,-0.260052,-0.277644,-18.749615,-20.329479,-19.758095,,,,,,,5
1508446920.012432,-0.465815,1.216070,2.240061,0.422368,0.312482,0.268299,-0.156005,-0.937742,-0.310328,-0.193543,-0.183429,0.201349,-18.610973,-20.139183,-20.081411,,,,,,,5
1508446920.032457,-0.520472,1.233980,2.282544,1.534708,-1.070306,0.238104,-0.164346,-0.943812,-0.286723,0.324396,-0.478613,0.561854,-18.792629,-20.341309,-19.704985,,,,,,,5
1508446920.052477,-0.590610,1.261682,2.366646,1.831209,1.532904,0.424592,-0.169408,-0.952603,-0.252682,0.794026,-0.225558,-0.188725,-19.005173,-20.903641,-18.896017,,,,,,,5
1508446920.072488,-0.586108,1.275592,2.400410,0.230940,1.570797,-0.221047,-0.160923,-0.956743,-0.242378,1.042439,0.100526,-0.684441,-18.749062,-21.155458,-18.871603,,,,,,,5
1508446920.092502,-0.520063,1.277865,2.365674,-0.147557,1.667528,-0.564817,-0.143495,-0.957401,-0.250583,0.249360,0.050800,1.099261,-17.596903,-21.423849,-19.661787,,,,,,,5
1508446920.112515,-0.492197,1.288301,2.351819,0.733553,-0.155204,-0.366203,-0.131728,-0.960363,-0.245664,-0.068025,0.033132,0.871656,-17.014500,-21.563585,-20.018410,,,,,,,5
1508446920.132524,-0.533262,1.312554,2.367625,1.307170,-1.658769,-0.383900,-0.129822,-0.966840,-0.219922,-0.195373,-0.013506,0.319181,-17.003824,-22.024143,-19.519867,,,,,,,5
1508446920.152531,-0.596264,1.336891,2.399427,1.162115,-1.458675,-0.298702,-0.130156,-0.972769,-0.191782,-0.226228,0.039190,0.233271,-17.567614,-22.776152,-18.106466,,,,,,,5
1508446920.172529,-0.663935,1.360320,2.448194,1.439506,-0.735080,-0.214944,-0.128744,-0.977931,-0.164545,-0.200464,0.021266,0.472467,-17.664644,-22.906963,-17.845158,,,,,,,5
1508446920.192559,-0.783257,1.388380,2.562124,1.902083,-0.223680,-0.025474,-0.127999,-0.983408,-0.128548,-0.192924,0.021906,0.197380,-17.943869,-23.743494,-16.415913,,,,,,,5
1508446920.212570,-0.958673,1.409786,2.734606,1.717400,-0.355346,0.239196,-0.131207,-0.987066,-0.092118,-0.019977,-0.064036,-0.094863,-18.066818,-24.460798,-15.181493,,,,,,,5
1508446920.232560,-1.163106,1.421265,2.931015,1.572795,-0.639029,0.205846,-0.136764,-0.988841,-0.059067,0.115661,0.058726,-0.052444,-18.122915,-24.568521,-14.938737,,,,,,,5
1508446920.252575,-1.382794,1.429485,3.138697,1.538158,-0.721728,-0.056430,-0.138360,-0.990032,-0.026323,0.123910,0.079983,0.033403,-18.518217,-25.135204,-13.435596,,,,,,,5
1508446920.272590,-1.600952,1.434787,-2.935648,1.397669,-0.427797,-0.173425,-0.135528,-0.990765,0.004088,0.093872,0.146405,0.080064,-18.668779,-25.660330,-12.175477,,,,,,,5
1508446920.292620,-1.790744,1.434277,-2.747987,1.170565,-0.057729,-0.100487,-0.132817,-0.990696,0.029693,0.036915,0.168537,0.032166,-18.672297,-25.760878,-11.955778,,,,,,,5
1508446920.312628,-1.940962,1.429263,-2.594874,1.070314,0.063640,-0.040532,-0.131506,-0.990001,0.051032,-0.087640,0.214351,-0.009680,-18.636955,-26.173439,-11.083014,,,,,,,5
1508446920.332645,-2.090282,1.418627,-2.448254,1.278116,-0.444111,0.003389,-0.131585,-0.988445,0.075251,0.009942,0.171169,0.035467,-18.626532,-26.544395,-10.181633,,,,,,,5
1508446920.352655,-2.252836,1.403415,-2.298474,1.492439,-0.813101,-0.067524,-0.129330,-0.986024,0.105021,0.000851,0.187502,0.030629,-18.705851,-26.746027,-9.484692,,,,,,,5
1508446920.372662,-2.404136,1.383775,-2.160567,1.576734,-0.769994,-0.182853,-0.125023,-0.982562,0.137624,0.099327,0.043247,-0.054647,-18.807375,-27.042597,-8.378468,,,,,,,5
1508446920.392656,-2.536184,1.362247,-2.041666,1.569409,-0.790409,-0.250007,-0.117827,-0.978332,0.170244,0.076308,-0.000290,-0.141405,-18.811218,-27.442106,-6.948891,,,,,,,5
1508446920.412691,-2.644469,1.337416,-1.948614,1.572556,-0.894322,-0.193628,-0.110291,-0.972890,0.203274,0.066270,-0.035090,-0.293072,-18.790409,-27.731647,-5.752768,,,,,,,5
1508446920.432701,-2.723601,1.312465,-1.884335,1.395682,-0.796338,-0.149230,-0.103701,-0.966818,0.233473,0.045992,-0.077494,-0.384062,-18.788837,-27.850239,-5.153830,,,,,,,5
1508446920.452715,-2.782732,1.289782,-1.839648,1.187962,-0.840613,-0.082835,-0.097401,-0.960774,0.259664,0.125553,-0.114680,-0.475958,-17.461843,-33.341599,-3.342071,,,,,,,5
1508446920.472701,-2.835181,1.271254,-1.809640,0.894553,-1.413404,-0.182582,-0.089009,-0.955472,0.281339,0.272282,-0.132022,-0.507856,-17.467789,-33.429878,-2.251056,,,,,,,5
1508446920.492719,-2.902906,1.261689,-1.772200,0.432125,-1.648112,-0.536877,-0.071923,-0.952606,0.295584,0.071343,-0.180009,-0.315359,-17.420637,-33.486263,-1.714441,,,,,,,5
1508446920.512753,-2.969352,1.260073,-1.730175,0.140138,-1.077563,-0.559086,-0.052402,-0.952113,0.301223,-0.313366,-0.200536,-0.190155,-16.922916,-33.779804,-0.536026,,,,,,,5
1508446920.532760,-3.003178,1.259443,-1.710027,0.026270,-0.574574,-0.128424,-0.042268,-0.951920,0.303417,-0.554504,-0.224197,-0.496364,-16.830961,-33.827339,-0.421364,,,,,,,5
1508446920.552775,-3.015700,1.262471,-1.708901,-0.273045,-0.644217,-0.039379,-0.038103,-0.952843,0.301062,-0.443190,-0.378898,-0.701819,-16.619015,-33.934536,-0.056851,,,,,,,5
1508446920.572769,-3.028818,1.272729,-1.710306,-0.655284,-0.724681,-0.019171,-0.033049,-0.955906,0.291808,-0.323900,-0.545437,-0.511122,-16.584438,-33.951378,-0.089296,,,,,,,5
1508446920.592797,-3.029683,1.290574,-1.719329,-1.086805,-0.309961,0.032947,-0.030886,-0.960994,0.274839,-0.068388,-0.594105,-0.604368,-16.581600,-33.952591,-0.140471,,,,,,,5
1508446920.612809,-3.019156,1.322180,-1.729823,-1.888609,0.256218,-0.101012,-0.030052,-0.969254,0.244221,0.115684,-0.564773,-0.478779,-16.605850,-33.931740,-0.793975,,,,,,,5
1508446920.632821,-3.004490,1.368022,-1.733303,-2.465434,0.693231,-0.379083,-0.027524,-0.979512,0.199497,0.008481,-0.376445,0.020016,-16.442207,-33.893986,-2.932410,,,,,,,5
,,,,,,,,,,,,,,,,42.293385,-71.264151,60.332581,-1.000000,-1.000000,1508446920.609551,5
1508446920.652833,-3.003600,1.420020,-1.716621,-2.565397,0.967907,-0.527700,-0.020662,-0.988655,0.148778,-0.094054,-0.351845,0.172374,-16.175259,-33.863876,-4.398470,,,,,,,5
1508446920.672832,-2.978521,1.470261,-1.723463,-2.422224,0.799163,-0.155049,-0.016294,-0.994951,0.099035,-0.181078,-0.367705,0.286616,-15.742733,-33.743046,-6.428140,,,,,,,5
1508446920.692858,-2.760490,1.514775,-1.932886,-2.368540,0.273982,0.348621,-0.020826,-0.998431,0.051975,-0.036883,-0.299542,-0.085224,-15.615130,-33.293957,-8.684914,,,,,,,5
1508446920.712856,-1.598465,1.539722,-3.091940,-2.661731,0.248376,0.576166,-0.031058,-0.999517,0.000860,-0.026651,-0.283549,-0.038183,-15.660886,-33.161335,-9.100012,,,,,,,5
1508446920.732871,-0.663978,1.502277,2.267418,-2.710903,0.762444,0.539947,-0.042192,-0.997653,-0.053920,0.017641,-0.258801,0.015147,-16.031677,-32.294533,-11.304698,,,,,,,5
1508446920.752893,-0.429118,1.452241,2.051143,-2.599995,1.031599,0.363254,-0.049212,-0.992981,-0.107554,0.090838,-0.136536,-0.005239,-16.208536,-31.014822,-14.251728,,,,,,,5
1508446920.772904,-0.320538,1.403238,1.960380,-2.464527,0.840010,0.277983,-0.052547,-0.985995,-0.158281,0.103649,-0.118162,0.088014,-16.133234,-30.359398,-15.677160,,,,,,,5
1508446920.792906,-0.268974,1.354645,1.922022,-2.425230,0.605647,0.401641,-0.056994,-0.976730,-0.206760,0.137927,0.061050,0.256275,-16.056009,-29.685574,-16.991730,,,,,,,5
1508446920.812929,-0.244818,1.306345,1.904256,-2.352630,0.219972,0.398754,-0.063353,-0.965236,-0.253585,0.142699,0.054408,0.396316,-16.110857,-28.178679,-19.342957,,,,,,,5
1508446920.832931,-0.227823,1.260914,1.891999,-2.170543,0.356751,0.351382,-0.068874,-0.952370,-0.297067,0.041241,0.188515,0.484734,-16.207178,-27.395861,-20.360302,,,,,,,5
1508446920.852950,-0.212804,1.219562,1.889827,-1.939966,0.833024,0.485674,-0.072665,-0.938949,-0.336296,-0.049390,0.227492,0.551949,-16.226898,-26.378609,-21.647270,,,,,,,5
1508446920.872964,-0.202276,1.182148,1.901682,-1.684893,1.179796,0.653077,-0.076128,-0.925422,-0.371212,-0.107054,0.331886,0.570080,-16.041180,-25.110582,-23.235466,,,,,,,5
1508446920.892959,-0.197777,1.150555,1.923264,-1.306044,1.208651,0.759507,-0.080164,-0.912991,-0.400027,0.010813,0.359203,0.606906,-15.984779,-24.861160,-23.540545,,,,,,,5
1508446920.912986,-0.196075,1.128825,1.945147,-0.768954,0.982463,0.562532,-0.083329,-0.903910,-0.419526,0.142320,0.285044,0.595903,-15.698596,-23.719250,-24.873661,,,,,,,5
1508446920.932980,-0.191729,1.116398,1.957643,-0.479769,0.661591,0.288908,-0.083640,-0.898525,-0.430879,0.204703,0.217861,0.554704,-15.354918,-22.907478,-25.830635,,,,,,,5
1508446920.953010,-0.186616,1.108008,1.962930,-0.330326,0.389070,0.150454,-0.082831,-0.894811,-0.438693,0.235800,0.280798,0.571750,-15.302304,-22.823212,-25.936234,,,,,,,5
1508446920.973022,-0.185562,1.104880,1.965322,-0.008396,0.019888,0.041034,-0.082885,-0.893410,-0.441529,0.322066,0.375924,0.607560,-15.090270,-22.483534,-26.353786,,,,,,,5
1508446920.993029,-0.187878,1.109711,1.964443,0.376423,-0.262442,-0.132751,-0.083100,-0.895570,-0.437091,0.339615,0.392778,0.533404,-15.118983,-22.543129,-26.286335,,,,,,,5
1508446921.013047,-0.193335,1.122426,1.960582,0.746196,-0.534935,-0.229990,-0.083289,-0.901155,-0.425421,0.285407,0.352495,0.479239,-15.138460,-22.602608,-26.223972,,,,,,,5
1508446921.033031,-0.206561,1.142810,1.960186,1.165728,-0.752759,-0.179843,-0.085123,-0.909803,-0.406216,0.191248,0.096495,-0.001987,-15.387026,-23.244087,-25.508812,,,,,,,5
1508446921.053055,-0.234033,1.171205,1.969355,1.535270,-1.102261,-0.122755,-0.090220,-0.921220,-0.378436,0.154246,-0.096282,-0.539792,-15.814563,-24.101616,-24.428659,,,,,,,5
1508446921.073082,-0.268841,1.199121,1.980139,1.186190,-1.291298,-0.158787,-0.096465,-0.931720,-0.350132,0.079680,-0.237485,-0.927517,-16.186914,-24.683010,-23.589840,,,,,,,5
1508446921.093090,-0.294198,1.210671,1.982767,0.260613,-0.946332,-0.078857,-0.102184,-0.935853,-0.337251,-0.455525,-0.234252,-0.721861,-16.698343,-25.213303,-22.653969,,,,,,,5
1508446921.113085,-0.306670,1.214680,1.988436,0.255537,0.000897,0.117730,-0.105249,-0.937258,-0.332371,-0.364570,-0.346815,-0.380917,-17.070456,-25.373608,-22.192955,,,,,,,5
1508446921.133117,-0.305519,1.211531,1.997215,-0.452029,0.760164,0.228521,-0.105753,-0.936155,-0.335305,-0.128500,-0.385042,-0.498237,-17.030766,-25.349463,-22.250965,,,,,,,5
1508446921.153127,-0.277530,1.198475,1.996945,-0.486324,1.603277,0.114948,-0.099669,-0.931485,-0.349859,-0.090563,-0.515917,-0.035227,-16.888149,-25.187714,-22.541451,,,,,,,5
1508446921.173142,-0.252710,1.201839,1.995497,0.560094,0.940941,-0.173979,-0.090171,-0.932704,-0.349189,-0.095040,-0.476629,0.611610,-15.985907,-24.948425,-23.447269,,,,,,,5
1508446921.193130,-0.240576,1.224790,2.011169,1.442851,1.642878,0.187334,-0.080805,-0.940735,-0.329377,-0.172353,-0.262238,0.659440,-15.557340,-25.278082,-23.382376,,,,,,,5
1508446921.213163,-0.254330,1.246112,2.051153,0.853021,0.815321,0.401177,-0.080262,-0.947752,-0.308747,0.292206,0.149335,0.313829,-14.969354,-25.854095,-23.135078,,,,,,,5
1508446921.233178,-0.260828,1.251133,2.082873,0.356319,1.660295,0.420172,-0.081038,-0.949341,-0.303618,0.681365,0.212021,0.772459,-14.671113,-26.060112,-23.094948,,,,,,,5
1508446921.253188,-0.241224,1.267971,2.096717,1.120175,1.255738,-0.320215,-0.071242,-0.954498,-0.289584,0.614943,0.164886,0.553866,-14.533783,-26.070652,-23.169764,,,,,,,5
1508446921.273199,-0.211302,1.290855,2.071127,0.933070,-0.255998,-0.662556,-0.057949,-0.961072,-0.270154,0.174542,0.132290,0.376599,-13.475470,-26.805460,-22.970127,,,,,,,5
1508446921.293213,-0.204326,1.313797,2.050393,1.250088,-0.726815,-0.369620,-0.051575,-0.967157,-0.248892,-0.159271,0.145517,0.514822,-13.302533,-27.562393,-22.160881,,,,,,,5
1508446921.313223,-0.234289,1.347555,2.069375,1.938254,-0.437063,-0.037909,-0.051396,-0.975185,-0.215343,-0.307902,-0.028248,0.422023,-13.331590,-27.724895,-21.939613,,,,,,,5
1508446921.333233,-0.303782,1.386227,2.135320,1.986688,-0.177050,0.199061,-0.054897,-0.983015,-0.175120,-0.227619,-0.187425,0.091013,-13.578471,-28.902143,-20.199972,,,,,,,5
1508446921.353228,-0.401329,1.417929,2.231104,1.670460,-0.124885,0.182649,-0.059484,-0.988339,-0.140173,-0.043894,0.010738,0.154913,-13.812837,-29.751015,-18.757139,,,,,,,5
1508446921.373260,-0.530245,1.447628,2.361141,1.790796,0.063919,0.117771,-0.062135,-0.992424,-0.105987,-0.014770,0.048622,0.166595,-13.921610,-30.328110,-17.724056,,,,,,,5
1508446921.393271,-0.752548,1.476547,2.585098,1.888868,-0.080697,0.092917,-0.064324,-0.995562,-0.068696,0.033242,0.071734,0.099411,-13.959701,-30.779652,-16.896374,,,,,,,5
1508446921.413286,-1.110065,1.497121,2.936460,1.695360,-0.520510,0.061174,-0.065933,-0.997287,-0.032727,0.011108,0.108386,0.036953,-14.024240,-31.224735,-16.002632,,,,,,,5
1508446921.433295,-1.565518,1.501675,-2.903099,1.523748,-0.672867,0.211901,-0.069065,-0.997612,-0.000365,-0.063839,0.108040,0.085325,-14.275248,-31.845966,-14.484454,,,,,,,5
1508446921.453307,-1.953561,1.490075,-2.527272,1.468180,-0.670312,0.326436,-0.074798,-0.996744,0.030115,0.049667,0.039194,0.105230,-14.607912,-32.200794,-13.321619,,,,,,,5
1508446921.473314,-2.233929,1.471606,-2.261584,1.497431,-0.837952,0.086984,-0.078041,-0.995085,0.060961,0.077324,0.057829,0.092421,-15.055982,-32.565880,-11.854473,,,,,,,5
1508446921.493331,-2.457349,1.450514,-2.052791,1.606299,-0.758942,-0.086676,-0.075846,-0.992775,0.092982,-0.005682,0.074791,0.083211,-15.055982,-32.565880,-11.854473,,,,,,,5
1508446921.513317,-2.621557,1.422533,-1.901849,1.770111,-0.748098,0.000929,-0.073404,-0.989029,0.128193,-0.167959,0.042084,0.027249,-15.309732,-33.178139,-9.621377,,,,,,,5
1508446921.533342,-2.722376,1.390179,-1.816065,1.734672,-0.782496,0.183746,-0.073120,-0.983733,0.164082,-0.157394,0.026183,-0.062459,-15.413707,-33.418758,-8.564564,,,,,,,5
1508446921.553365,-2.781431,1.356715,-1.771253,1.704808,-0.769644,0.209063,-0.074873,-0.977172,0.198819,0.087812,-0.014588,-0.152906,-15.773905,-33.724049,-6.451358,,,,,,,5
1508446921.573376,-2.839452,1.322825,-1.729527,1.801039,-0.963652,0.034028,-0.073034,-0.969412,0.234320,0.085973,-0.022348,-0.188406,-15.773905,-33.724049,-6.451358,,,,,,,5
1508446921.593392,-2.901762,1.288216,-1.690128,1.775849,-1.361280,-0.060178,-0.066234,-0.960339,0.270854,0.038509,-0.040165,-0.372844,-16.051624,-34.034081,-3.431368,,,,,,,5
1508446921.613401,-2.960114,1.255352,-1.658539,1.674882,-1.357349,-0.166418,-0.055993,-0.950659,0.305144,0.070596,-0.027094,-0.393797,-16.067122,-34.151966,-1.799542,,,,,,,5
1508446921.633404,-3.011880,1.223884,-1.628162,1.587628,-1.098464,-0.272352,-0.043978,-0.940427,0.337139,0.114779,-0.233126,-0.522885,-16.021013,-34.205753,-1.020360,,,,,,,5
1508446921.653429,-3.064634,1.199447,-1.596873,1.007877,-1.207479,-0.547665,-0.027899,-0.931839,0.361799,0.146765,-0.170624,-0.854185,-15.693504,-34.356190,1.055388,,,,,,,5
1508446921.673437,-3.125663,1.191778,-1.557776,0.042488,-1.256459,-0.726030,-0.005894,-0.929028,0.369961,-0.019115,-0.176837,-0.843762,-15.207655,-34.538658,1.885768,,,,,,,5
1508446921.693450,3.105249,1.199059,-1.527084,-0.500100,-1.079799,-0.415211,0.013199,-0.931698,0.362995,-0.351852,-0.224034,-0.733921,-14.819298,-34.695690,2.084457,,,,,,,5
1508446921.713457,3.073617,1.209005,-1.511932,-0.557093,-0.828187,-0.166341,0.024041,-0.935264,0.353133,-0.415719,-0.579155,-0.821486,-14.464799,-34.848785,2.019740,,,,,,,5
1508446921.733473,3.051077,1.227983,-1.507304,-1.272963,-0.962931,0.077863,0.030384,-0.941813,0.334762,-0.340504,-0.708547,-0.763000,-14.388772,-34.889839,1.846609,,,,,,,5
1508446921.753484,3.024559,1.264902,-1.499116,-2.159812,-0.887282,0.007780,0.035164,-0.953578,0.299086,0.155586,-0.584950,-0.465025,-14.411526,-34.910408,1.148473,,,,,,,5
1508446921.773496,2.976865,1.314084,-1.464622,-2.651492,-0.624292,-0.200511,0.041636,-0.967230,0.250465,0.105062,-0.489359,0.069069,-14.360488,-34.945793,-0.561837,,,,,,,5
1508446921.793486,2.903014,1.368296,-1.398516,-2.869956,-0.393499,-0.157421,0.047529,-0.979567,0.195422,-0.093107,-0.458818,0.318234,-14.260850,-34.941219,-1.867329,,,,,,,5
1508446921.813520,2.801850,1.421591,-1.304611,-2.674401,-0.501135,0.078356,0.049538,-0.988889,0.140156,-0.264137,-0.515459,0.422314,-14.194832,-34.864090,-3.278657,,,,,,,5
1508446921.833533,2.685831,1.470590,-1.197742,-2.470740,-0.412679,0.493225,0.044032,-0.994983,0.089828,-0.226741,-0.461804,0.306550,-14.410574,-34.441685,-5.818358,,,,,,,5
1508446921.853530,2.481836,1.521458,-0.995217,-2.614235,0.114364,0.810798,0.030228,-0.998783,0.038968,-0.189683,-0.369106,0.043170,-14.864654,-33.926678,-7.467940,,,,,,,5
1508446921.873556,0.587103,1.551666,0.909923,-2.836457,0.706057,1.073467,0.010596,-0.999817,-0.015926,-0.170051,-0.368072,0.098064,-14.864654,-33.926678,-7.467940,,,,,,,5
1508446921.893569,-0.146877,1.495951,1.663219,-2.898414,1.020629,1.098748,-0.010943,-0.997200,-0.073970,0.091891,-0.370765,0.175441,-15.701844,-32.741352,-10.450053,,,,,,,5
1508446921.913579,-0.210912,1.437692,1.747739,-2.701005,0.998438,0.858663,-0.027783,-0.991155,-0.129771,0.111753,-0.143245,0.297252,-16.351540,-31.198904,-13.674915,,,,,,,5
1508446921.933590,-0.221683,1.384244,1.779203,-2.473112,1.014162,0.832873,-0.040780,-0.982650,-0.180933,0.040643,-0.072328,0.354563,-16.469164,-30.682261,-14.666737,,,,,,,5
1508446921.953605,-0.234961,1.334124,1.813341,-2.284881,1.008153,0.965386,-0.054586,-0.972124,-0.228027,-0.013057,0.085191,0.433502,-16.652653,-29.627169,-16.512653,,,,,,,5
1508446921.973615,-0.245778,1.287202,1.847740,-2.113590,1.201480,0.986111,-0.068080,-0.960056,-0.271400,0.040523,0.187076,0.533180,-16.922791,-27.936401,-18.998009,,,,,,,5
1508446921.993603,-0.247132,1.244335,1.876822,-1.862295,1.395530,0.922318,-0.078449,-0.947183,-0.310950,0.038075,0.194147,0.580389,-16.955801,-27.364729,-19.784342,,,,,,,5
1508446922.013636,-0.238817,1.207975,1.901173,-1.545948,1.659387,0.780324,-0.083956,-0.934899,-0.344840,0.011904,0.298303,0.615363,-16.769899,-25.769737,-21.964489,,,,,,,5
1508446922.033651,-0.223715,1.178370,1.921187,-1.240147,1.655604,0.656141,-0.084844,-0.923984,-0.372902,-0.005992,0.355685,0.620750,-16.376848,-24.879959,-23.249390,,,,,,,5
1508446922.053661,-0.208996,1.155415,1.938859,-0.928956,1.475515,0.544646,-0.083726,-0.914962,-0.394758,0.066544,0.363784,0.613981,-16.150162,-24.492712,-23.812328,,,,,,,5
1508446922.073675,-0.196409,1.139450,1.954252,-0.579383,1.215709,0.427019,-0.081590,-0.908404,-0.410056,0.157060,0.352968,0.588706,-15.467802,-23.591570,-25.138269,,,,,,,5
1508446922.093686,-0.190104,1.131581,1.967908,-0.185005,0.760434,0.316002,-0.080352,-0.905086,-0.417569,0.189101,0.341472,0.597607,-15.188664,-23.317368,-25.560760,,,,,,,5
1508446922.113697,-0.194468,1.131520,1.982189,0.198587,0.214173,0.310237,-0.082184,-0.905060,-0.417268,0.220825,0.349655,0.499528,-14.976970,-23.153038,-25.833599,,,,,,,5
1508446922.133711,-0.218063,1.138609,2.003757,0.586318,-0.471939,0.413005,-0.090615,-0.908052,-0.408939,0.203897,0.380708,0.392474,-15.141138,-23.216318,-25.680656,,,,,,,5
1508446922.153723,-0.265497,1.152503,2.035993,0.984690,-1.162286,0.521181,-0.106583,-0.913783,-0.391970,0.161209,0.322688,0.266832,-15.540947,-23.377098,-25.293037,,,,,,,5
1508446922.173732,-0.334049,1.171893,2.078827,1.262778,-1.491805,0.507256,-0.127348,-0.921488,-0.366937,0.192945,0.311045,0.276697,-16.164000,-23.624725,-24.664654,,,,,,,5
1508446922.193746,-0.410407,1.196109,2.129174,1.599405,-1.467908,0.404643,-0.146020,-0.930622,-0.335590,0.124139,0.089207,0.016681,-17.582645,-24.317167,-22.962440,,,,,,,5
1508446922.213759,-0.490751,1.221783,2.185565,1.452497,-1.267348,0.296129,-0.161167,-0.939710,-0.301611,-0.042538,-0.362490,-0.590952,-18.401310,-24.910812,-21.646961,,,,,,,5
1508446922.233768,-0.538996,1.232620,2.222526,0.338287,-0.232114,0.277067,-0.170288,-0.943361,-0.284731,-0.147263,-0.379698,-0.712110,-18.725681,-25.142857,-21.093443,,,,,,,5
1508446922.253782,-0.547476,1.227354,2.236553,-0.210587,0.426160,0.391221,-0.175280,-0.941601,-0.287514,-0.432310,-0.213016,-0.586295,-19.032473,-25.244804,-20.693295,,,,,,,5
1508446922.273783,-0.554497,1.223435,2.255717,0.187669,0.624327,0.311608,-0.179236,-0.940274,-0.289412,-0.237879,-0.079166,-0.204866,-19.052485,-24.958773,-21.019283,,,,,,,5
1508446922.293803,-0.558511,1.229528,2.278882,0.600934,1.076984,0.100283,-0.177356,-0.942331,-0.283826,-0.179257,-0.030112,-0.150256,-18.918283,-24.985708,-21.108307,,,,,,,5
1508446922.313819,-0.543710,1.241528,2.293493,0.536367,1.585663,-0.264008,-0.167274,-0.946279,-0.276722,-0.048577,-0.151225,-0.052089,-18.275034,-25.310585,-21.287205,,,,,,,5
1508446922.333828,-0.504708,1.251067,2.285455,0.331112,1.438836,-0.359510,-0.151985,-0.949320,-0.275121,0.016655,-0.198080,0.173741,-17.419712,-25.598473,-21.656858,,,,,,,5
1508446922.353832,-0.486567,1.265823,2.283988,0.926759,0.431530,-0.330866,-0.140403,-0.953855,-0.265420,0.326713,-0.324481,0.520776,-17.034412,-25.741577,-21.793293,,,,,,,5
1508446922.373722,-0.526754,1.293472,2.328946,1.806760,0.210349,0.043567,-0.137639,-0.961791,-0.236670,0.456289,-0.440964,0.156867,-16.560644,-26.565842,-21.160076,,,,,,,5
1508446922.393759,-0.565920,1.313826,2.389704,0.516542,1.453274,0.150979,-0.136274,-0.967164,-0.214529,0.413160,-0.445418,-0.649302,-16.354208,-27.193987,-20.512794,,,,,,,5
1508446922.413755,-0.509901,1.303923,2.368346,-0.747128,1.724198,-0.031736,-0.128718,-0.964600,-0.230170,0.339289,0.204270,0.366980,-15.875517,-27.150631,-20.941797,,,,,,,5
1508446922.433760,-0.475331,1.302566,2.354990,0.288648,0.645839,-0.205008,-0.121284,-0.964241,-0.235645,0.179802,0.282997,0.865315,-15.053482,-26.920225,-21.827549,,,,,,,5
1508446922.453794,-0.475998,1.318471,2.353305,0.825316,-0.516613,-0.501715,-0.114399,-0.968335,-0.221903,0.186191,0.254528,0.845042,-14.837936,-27.142319,-21.699720,,,,,,,5
1508446922.473805,-0.497595,1.340869,2.356154,1.134223,-1.097551,-0.410166,-0.108783,-0.973683,-0.200269,0.184878,0.116673,0.391050,-14.799405,-27.517340,-21.249029,,,,,,,5
1508446922.493809,-0.556554,1.364832,2.395682,1.297600,-0.938319,-0.115892,-0.108036,-0.978864,-0.173647,-0.082775,0.006635,0.367220,-15.120070,-28.387865,-19.830790,,,,,,,5
1508446922.513825,-0.671795,1.388260,2.494466,1.657906,-0.932979,0.250164,-0.112979,-0.983386,-0.142080,-0.100018,0.044086,0.325430,-15.374247,-28.794134,-19.033606,,,,,,,5
1508446922.533840,-0.874816,1.408277,2.682083,1.874564,-0.841786,0.538438,-0.124173,-0.986823,-0.103739,-0.135028,-0.024209,0.238368,-15.742747,-29.197054,-18.095461,,,,,,,5
1508446922.553854,-1.111155,1.417240,2.906308,1.623154,-0.735266,0.582227,-0.137078,-0.988233,-0.067854,-0.076423,-0.066576,0.060103,-16.642279,-29.861204,-16.096298,,,,,,,5
1508446922.573853,-1.349135,1.417881,3.129952,1.629708,-0.897974,0.534244,-0.148593,-0.988331,-0.033488,-0.001004,-0.038555,0.033610,-17.076738,-30.098082,-15.173606,,,,,,,5
1508446922.593876,-1.572451,1.409765,-2.943389,1.514499,-0.753148,0.616453,-0.160336,-0.987062,0.000265,0.034406,-0.021986,0.093042,-17.515425,-30.316368,-14.208289,,,,,,,5
1508446922.613891,-1.734872,1.393700,-2.793597,1.189608,-0.743137,0.695764,-0.173806,-0.984359,0.028776,0.083978,0.086166,0.137804,-18.094780,-30.518476,-12.998045,,,,,,,5
1508446922.633901,-1.838491,1.377514,-2.702211,0.906575,-0.612831,0.549786,-0.185240,-0.981379,0.050807,0.166822,0.237589,0.146901,-18.972813,-30.571869,-11.538663,,,,,,,5
1508446922.653913,-1.921833,1.364667,-2.625697,0.952815,-0.379226,0.222403,-0.192191,-0.978831,0.070381,0.191412,0.262583,0.097633,-19.287466,-30.581316,-10.978364,,,,,,,5
1508446922.673905,-2.036270,1.358714,-2.521371,1.252076,-0.798725,-0.304622,-0.188101,-0.977595,0.094480,0.069876,0.141322,0.090380,-19.453348,-30.822115,-9.965548,,,,,,,5
1508446922.693937,-2.184553,1.349604,-2.389233,1.518454,-1.010442,-0.353691,-0.179352,-0.975636,0.126358,0.078079,0.074666,0.047012,-19.420509,-31.208420,-8.753620,,,,,,,5
1508446922.713926,-2.329083,1.335767,-2.262780,1.559004,-1.108279,-0.376855,-0.169068,-0.972508,0.160141,0.076569,0.051441,-0.006149,-19.393736,-31.406483,-8.078584,,,,,,,5
1508446922.733951,-2.462126,1.316952,-2.151241,1.635701,-1.337624,-0.331676,-0.157802,-0.967954,0.195353,0.114452,-0.059862,-0.095988,-19.285267,-31.949459,-5.920999,,,,,,,5
1508446922.753972,-2.583454,1.293244,-2.055621,1.715677,-1.515137,-0.349250,-0.145114,-0.961729,0.232421,0.125705,-0.093996,-0.178512,-19.237886,-32.177032,-4.721227,,,,,,,5
1508446922.773983,-2.692977,1.267270,-1.975039,1.656241,-1.669370,-0.413742,-0.129633,-0.954289,0.269311,0.149546,-0.105556,-0.337030,-19.127296,-32.445988,-3.025260,,,,,,,5
1508446922.793996,-2.785588,1.243887,-1.914878,1.262209,-1.796362,-0.334041,-0.111920,-0.947039,0.300982,-0.002308,-0.054258,-0.317980,-18.873863,-32.720940,-0.930181,,,,,,,5
1508446922.814008,-2.863537,1.227881,-1.870548,0.852547,-1.746797,-0.500291,-0.092292,-0.941778,0.323320,-0.084054,-0.116205,-0.283494,-18.702467,-32.832066,0.144606,,,,,,,5
1508446922.834015,-2.929452,1.216015,-1.835524,0.670211,-1.511631,-0.416438,-0.073143,-0.937723,0.339597,-0.301216,-0.373114,-0.328886,-18.364202,-32.995651,1.338171,,,,,,,5
1508446922.854032,-2.984453,1.207509,-1.809307,0.375190,-1.584531,-0.346526,-0.055610,-0.934734,0.350971,-0.336602,-0.390553,-0.458286,-17.960024,-33.148041,2.528386,,,,,,,5
1508446922.874024,-3.034086,1.206148,-1.789992,-0.067900,-1.417366,-0.305338,-0.038265,-0.934249,0.354562,-0.414723,-0.272873,-0.638741,-17.719641,-33.228493,3.103095,,,,,,,5
1508446922.894054,-3.050931,1.213450,-1.784425,-0.535449,-0.081785,-0.006865,-0.031669,-0.936828,0.348353,-0.484078,-0.361496,-0.893397,-17.503126,-33.310432,3.435605,,,,,,,5
1508446922.914067,-3.040660,1.230454,-1.791662,-1.055203,0.176694,0.009271,-0.033635,-0.942640,0.332111,-0.429728,-0.427172,-0.930698,-17.470901,-33.378761,2.893746,,,,,,,5
1508446922.934052,-3.026830,1.257827,-1.797424,-1.568507,0.727956,-0.093571,-0.035256,-0.951424,0.305860,0.155236,-0.360390,-0.707074,-17.465141,-33.449272,1.965415,,,,,,,5
1508446922.954090,-3.021742,1.295603,-1.784938,-1.973183,0.692226,-0.650605,-0.032490,-0.962373,0.269783,0.371708,-0.327224,-0.518960,-17.465141,-33.449272,1.965415,,,,,,,5
1508446922.974104,-3.086050,1.340155,-1.714736,-2.236807,-0.059887,-1.292197,-0.012691,-0.973520,0.228249,0.388209,-0.310965,0.016227,-17.061766,-33.712955,-0.283946,,,,,,,5
1508446922.994114,3.051741,1.386003,-1.573896,-2.308743,-0.612641,-1.400748,0.016487,-0.982974,0.183003,-0.015602,-0.313046,0.281536,-15.759454,-34.249542,-2.521125,,,,,,,5
1508446923.014126,2.844479,1.424515,-1.385571,-2.087698,-1.318719,-0.957588,0.042673,-0.989320,0.139374,-0.122629,-0.494079,0.363266,-15.759454,-34.249542,-2.521125,,,,,,,5
1508446923.034116,2.655600,1.458000,-1.223959,-1.852104,-1.457365,0.136680,0.052574,-0.993645,0.099525,-0.267677,-0.465248,0.105355,-14.652475,-34.503632,-4.748908,,,,,,,5
1508446923.054150,2.577208,1.499354,-1.167785,-2.019134,-0.806976,1.090868,0.038182,-0.997449,0.060311,-0.304661,-0.323138,-0.005761,-15.180861,-34.136803,-5.654034,,,,,,,5
1508446923.074156,2.653911,1.552124,-1.249541,-2.197629,0.057302,1.842823,0.008749,-0.999826,0.016494,-0.257955,-0.525306,-0.049926,-15.609999,-33.837601,-6.252399,,,,,,,5
1508446923.094150,-0.780551,1.527242,2.198854,-2.512275,1.115582,1.851673,-0.030638,-0.999052,-0.030937,0.225798,-0.269778,0.195274,-17.347191,-32.445107,-8.610320,,,,,,,5
1508446923.114186,-0.571502,1.470049,2.018230,-2.634283,1.455434,0.895848,-0.054402,-0.994929,-0.084594,0.295658,-0.082814,0.190994,-18.050814,-31.406170,-10.750270,,,,,,,5
1508446923.134184,-0.427304,1.418395,1.897374,-2.578990,1.141411,0.419061,-0.062914,-0.988409,-0.138162,0.206316,-0.011850,0.226450,-18.149645,-30.959787,-11.824964,,,,,,,5
1508446923.154210,-0.359393,1.369026,1.840635,-2.328536,0.360768,0.505718,-0.070483,-0.979713,-0.187601,0.062625,0.263161,0.270883,-18.230072,-29.667849,-14.670752,,,,,,,5
1508446923.174221,-0.329576,1.325361,1.814124,-2.089827,0.196796,0.435161,-0.078638,-0.970032,-0.229901,0.297434,0.227219,0.573316,-18.436701,-28.812019,-16.053141,,,,,,,5
1508446923.194233,-0.304368,1.277053,1.808639,-2.313395,1.373811,0.690809,-0.086772,-0.957167,-0.276229,0.383875,0.298628,0.570022,-18.525627,-28.365942,-16.730879,,,,,,,5
1508446923.214245,-0.271156,1.231695,1.809017,-2.072838,1.762224,0.592014,-0.089096,-0.943054,-0.320486,0.117432,0.172546,0.486212,-18.333590,-26.746998,-19.396526,,,,,,,5
1508446923.234254,-0.234911,1.192118,1.806508,-1.830749,1.613797,0.410764,-0.086048,-0.929154,-0.359539,-0.008754,0.174439,0.507107,-18.015158,-25.997705,-20.671745,,,,,,,5
1508446923.254268,-0.209054,1.158480,1.811118,-1.499641,1.442816,0.476188,-0.083166,-0.916195,-0.392008,-0.025232,0.362042,0.555658,-17.550642,-25.080360,-22.151707,,,,,,,5
1508446923.274281,-0.198284,1.131784,1.825338,-1.057771,0.968194,0.611505,-0.083729,-0.905172,-0.416718,0.066593,0.395482,0.547180,-17.098103,-24.057400,-23.593306,,,,,,,5
1508446923.294282,-0.205900,1.114215,1.846700,-0.584691,0.329457,0.604279,-0.090138,-0.897565,-0.431570,0.187275,0.323835,0.502340,-17.029400,-23.557550,-24.141026,,,,,,,5
1508446923.314304,-0.222669,1.106766,1.865829,-0.085842,-0.070938,0.405793,-0.098835,-0.894256,-0.436506,0.298390,0.312332,0.522963,-17.176392,-23.103325,-24.473568,,,,,,,5
1508446923.334316,-0.234861,1.109465,1.879902,0.342491,0.037538,0.200721,-0.103588,-0.895461,-0.432920,0.222972,0.286574,0.470212,-17.391291,-22.970825,-24.446510,,,,,,,5
1508446923.354327,-0.247590,1.119801,1.892048,0.687733,-0.199837,0.117147,-0.106816,-0.900014,-0.422570,0.191807,0.305989,0.383156,-17.479328,-23.149263,-24.214302,,,,,,,5
1508446923.374340,-0.270551,1.135691,1.908112,0.966821,-0.563187,0.150053,-0.112653,-0.906826,-0.406173,0.164563,0.309063,0.287780,-17.479328,-23.149263,-24.214302,,,,,,,5
1508446923.394352,-0.307787,1.156522,1.931192,1.215091,-0.917087,0.146511,-0.121945,-0.915409,-0.383609,-0.062289,0.062778,-0.172162,-18.107407,-23.927063,-22.964430,,,,,,,5
1508446923.414364,-0.358030,1.181180,1.962775,1.454624,-1.123031,0.224994,-0.133105,-0.925055,-0.355748,-0.087110,-0.048135,-0.434810,-18.637928,-24.455101,-21.961861,,,,,,,5
1508446923.434355,-0.421442,1.204022,2.003248,1.068126,-1.325539,0.280212,-0.146698,-0.933489,-0.327228,-0.130234,-0.300138,-1.254925,-18.945974,-24.731251,-21.381369,,,,,,,5
1508446923.454379,-0.453722,1.209381,2.026908,0.192189,0.081476,0.286822,-0.154987,-0.935397,-0.317822,-0.396191,-0.312711,-0.549182,-19.773457,-25.134899,-20.124485,,,,,,,5
1508446923.474399,-0.470752,1.211405,2.053240,0.404883,0.390703,0.344178,-0.159518,-0.936111,-0.313449,-0.166364,-0.206497,-0.261899,-19.830423,-25.092127,-20.121807,,,,,,,5
1508446923.494407,-0.475033,1.211800,2.072063,-0.173448,0.942154,0.285520,-0.160689,-0.936250,-0.312434,-0.060807,-0.163955,-0.261983,-19.827744,-25.110695,-20.101276,,,,,,,5
1508446923.514426,-0.447533,1.198938,2.072768,-0.500643,1.678423,0.256757,-0.157236,-0.931654,-0.327564,-0.119604,0.068495,0.361942,-19.417622,-24.779085,-20.897381,,,,,,,5
1508446923.534435,-0.431247,1.201182,2.087159,0.686976,1.069898,0.187309,-0.151006,-0.932467,-0.328181,-0.065897,-0.080915,0.494517,-18.957272,-24.641029,-21.475317,,,,,,,5
1508446923.554445,-0.473340,1.227023,2.138126,2.088455,0.170779,0.288701,-0.153644,-0.941490,-0.299985,0.657947,-0.456078,0.395856,-18.688141,-24.937729,-21.368454,,,,,,,5
1508446923.574436,-0.513275,1.261142,2.202401,1.292089,1.644114,-0.169275,-0.149633,-0.952439,-0.265463,0.491933,-0.481918,-0.783488,-18.538525,-25.927158,-20.294167,,,,,,,5
1508446923.594471,-0.435878,1.256988,2.162338,-1.100911,1.839551,-0.540246,-0.130328,-0.951165,-0.279821,0.536929,-0.274528,-0.426279,-17.837727,-26.157322,-20.624203,,,,,,,5
1508446923.614481,-0.358732,1.253515,2.105088,0.087444,0.702102,-0.879468,-0.109534,-0.950087,-0.292124,0.161322,0.377059,0.992533,-16.821980,-25.964329,-21.693832,,,,,,,5
1508446923.634495,-0.344866,1.273342,2.080742,1.113049,-1.301564,-0.451943,-0.099084,-0.956086,-0.275830,-0.248404,0.031891,0.649014,-16.177818,-26.493736,-21.543159,,,,,,,5
1508446923.654481,-0.404330,1.297322,2.103036,1.231817,-1.926809,0.003210,-0.106249,-0.962838,-0.248301,-0.173627,-0.092520,0.465723,-16.576658,-26.947498,-20.659004,,,,,,,5
1508446923.674516,-0.486797,1.319141,2.158012,1.397143,-1.154865,0.225561,-0.116485,-0.968502,-0.220081,-0.155045,-0.020207,0.559834,-17.153078,-27.320320,-19.675358,,,,,,,5
1508446923.694530,-0.589298,1.346834,2.246075,1.907063,-0.700724,0.149193,-0.123435,-0.975025,-0.184634,-0.193108,-0.023541,0.581561,-17.954189,-28.051289,-17.847126,,,,,,,5
1508446923.714539,-0.728335,1.377684,2.377966,2.076238,-0.411909,0.134836,-0.127744,-0.981412,-0.143223,-0.171527,-0.045734,0.225971,-18.172609,-28.529346,-16.839842,,,,,,,5
1508446923.734526,-0.902504,1.401884,2.548927,1.853495,-0.246871,0.208719,-0.131947,-0.985768,-0.104169,-0.063381,-0.030818,0.017011,-18.332569,-28.998211,-15.835665,,,,,,,5
1508446923.754565,-1.113894,1.417276,2.756708,1.830047,-0.377347,0.259535,-0.137233,-0.988239,-0.067463,0.095866,0.065876,0.062794,-18.530159,-29.501797,-14.629586,,,,,,,5
1508446923.774577,-1.362321,1.424822,3.000834,1.814152,-0.292590,0.191324,-0.142307,-0.989365,-0.030105,0.165256,0.143600,0.158569,-18.899017,-30.114910,-12.793235,,,,,,,5
1508446923.794588,-1.595547,1.426920,-3.048516,1.604600,0.043537,-0.020971,-0.143337,-0.989668,0.003548,0.142498,0.135267,0.154563,-18.899017,-30.114910,-12.793235,,,,,,,5
1508446923.814579,-1.791633,1.423279,-2.844671,1.448738,0.458332,0.094113,-0.143413,-0.989139,0.032196,0.018185,0.197101,0.154404,-18.946405,-30.855906,-10.802519,,,,,,,5
1508446923.834612,-1.967654,1.415938,-2.657379,1.479032,0.479642,-0.186713,-0.142253,-0.988033,0.059617,-0.038030,0.180752,0.119475,-18.845959,-31.161396,-10.076951,,,,,,,5
1508446923.854611,-2.136408,1.400108,-2.480432,1.746994,0.031292,0.144166,-0.143407,-0.985468,0.091034,0.167974,-0.004446,-0.032104,-18.729275,-31.415651,-9.487820,,,,,,,5
1508446923.874637,-2.296445,1.379147,-2.324624,1.702911,-0.513327,-0.064235,-0.142491,-0.981691,0.126405,0.029545,0.034380,-0.011155,-18.800724,-31.770107,-8.058595,,,,,,,5
1508446923.894647,-2.441284,1.355801,-2.191887,1.826822,-0.847432,-0.197622,-0.137490,-0.976977,0.163131,0.052422,0.030658,-0.022186,-18.825859,-32.069035,-6.701622,,,,,,,5
1508446923.914640,-2.576694,1.329000,-2.073121,1.883614,-1.073171,-0.338935,-0.128183,-0.970909,0.202247,0.084345,-0.011253,-0.126319,-18.792688,-32.307049,-5.553101,,,,,,,5
1508446923.934666,-2.697377,1.300138,-1.972880,1.854065,-1.223321,-0.446832,-0.114900,-0.963595,0.241418,0.101335,-0.057020,-0.227044,-18.616844,-32.694298,-3.499119,,,,,,,5
1508446923.954683,-2.796597,1.269930,-1.895801,1.790140,-1.293250,-0.403758,-0.100223,-0.955080,0.278886,0.111301,-0.069792,-0.283662,-18.453533,-32.895897,-2.252729,,,,,,,5
1508446923.974687,-2.878294,1.239193,-1.837182,1.676256,-1.322994,-0.420692,-0.084732,-0.945522,0.314340,0.108033,-0.100926,-0.443520,-18.222515,-33.095684,-0.602733,,,,,,,5
1508446923.994708,-2.948371,1.213476,-1.794837,1.210003,-1.654075,-0.386460,-0.067163,-0.936837,0.343257,0.105981,-0.269751,-0.538188,-17.866476,-33.268013,1.332702,,,,,,,5
1508446924.014719,-3.011673,1.198273,-1.765117,0.624565,-1.815424,-0.439328,-0.047153,-0.931412,0.360900,-0.012402,-0.256653,-0.605010,-17.539484,-33.366814,2.601893,,,,,,,5
1508446924.034724,-3.074339,1.193175,-1.736501,0.112512,-1.772884,-0.503148,-0.024778,-0.929544,0.367877,-0.161989,-0.245550,-0.594089,-17.335346,-33.430294,3.106238,,,,,,,5
1508446924.054744,-3.119431,1.196882,-1.719213,-0.312169,-1.164851,-0.155893,-0.008094,-0.930905,0.365172,-0.523110,-0.291385,-0.474043,-16.709448,-33.651066,4.018409,,,,,,,5
1508446924.074738,-3.125490,1.206740,-1.727887,-0.610340,-0.490697,0.284024,-0.005733,-0.934460,0.356021,-0.538334,-0.297290,-0.767001,-16.639772,-33.679932,4.065442,,,,,,,5
1508446924.094765,-3.115062,1.221973,-1.748635,-0.888393,-0.515711,0.379667,-0.009067,-0.939776,0.341672,-0.514294,-0.467329,-0.969419,-16.795179,-33.633846,3.799210,,,,,,,5
1508446924.114780,-3.099320,1.249255,-1.774634,-1.714701,-0.245583,0.338979,-0.013355,-0.948749,0.315747,-0.202892,-0.504223,-0.810590,-17.074202,-33.565865,3.090652,,,,,,,5
1508446924.134766,-3.071032,1.291498,-1.797881,-2.332307,0.521087,0.150259,-0.019436,-0.961249,0.274996,0.329541,-0.514474,-0.660723,-17.127480,-33.562233,2.823781,,,,,,,5
1508446924.154801,-3.060594,1.342320,-1.805576,-2.631431,-0.193137,-0.294619,-0.018326,-0.974012,0.225752,0.594101,-0.466417,-0.221540,-17.301645,-33.589363,0.394128,,,,,,,5
1508446924.174795,-3.112584,1.397557,-1.768048,-2.773155,-1.091738,-0.581819,-0.005000,-0.985032,0.172301,0.304057,-0.506546,0.321000,-16.980265,-33.713509,-1.678576,,,,,,,5
1508446924.194826,3.082237,1.450988,-1.708652,-2.567052,-1.573808,-0.182268,0.007090,-0.992832,0.119311,-0.283106,-0.622647,0.641294,-16.712690,-33.749973,-3.061524,,,,,,,5
1508446924.214837,3.093297,1.499538,-1.746682,-2.355706,-1.163185,0.617280,0.003437,-0.997462,0.071115,-0.398319,-0.536428,0.520514,-16.712690,-33.749973,-3.061524,,,,,,,5
1508446924.234836,-2.496707,1.543178,-2.455716,-2.568008,-0.459698,1.237937,-0.016600,-0.999619,0.022069,-0.456133,-0.298187,0.019740,-17.572990,-32.992649,-5.515703,,,,,,,5
1508446924.254860,-0.908872,1.516801,2.242205,-2.832639,0.559348,1.274854,-0.042571,-0.998543,-0.033171,-0.425385,-0.318978,0.075408,-18.426125,-32.184147,-7.239219,,,,,,,5
1508446924.274869,-0.606514,1.461431,1.963326,-2.680250,1.554478,0.915916,-0.062215,-0.994026,-0.089680,-0.183956,-0.389031,0.182697,-18.898272,-31.507984,-8.823257,,,,,,,5
1508446924.294864,-0.483087,1.410029,1.873897,-2.434189,1.691043,0.816900,-0.074357,-0.987105,-0.141757,0.179811,-0.258623,0.314364,-19.106510,-30.856310,-10.515558,,,,,,,5
1508446924.334887,-0.411521,1.306327,1.848558,-2.381109,0.843374,1.148897,-0.104560,-0.965231,-0.239574,0.212073,-0.020334,0.430263,-19.291328,-29.476690,-13.664444,,,,,,,5
1508446924.314896,-0.428298,1.358552,1.846690,-2.403308,1.193285,0.957325,-0.087490,-0.977561,-0.191627,0.195003,-0.008005,0.382316,-19.291328,-29.476690,-13.664444,,,,,,,5
1508446924.354923,-0.407521,1.254747,1.862145,-2.202421,0.924317,1.234548,-0.123187,-0.950471,-0.285361,0.037005,0.205170,0.514319,-19.983421,-27.152981,-17.062420,,,,,,,5
1508446924.374932,-0.403619,1.207098,1.883309,-1.941841,1.361988,1.271102,-0.139714,-0.934588,-0.327148,0.069828,0.257235,0.566208,-20.262663,-25.892860,-18.620743,,,,,,,5
1508446924.394926,-0.393059,1.165701,1.907274,-1.613909,1.784220,1.155942,-0.150949,-0.919065,-0.364052,0.073389,0.257444,0.607888,-20.316811,-25.274483,-19.395241,,,,,,,5
1508446924.414951,-0.370986,1.131732,1.925681,-1.328181,2.004063,0.878439,-0.154111,-0.905150,-0.396174,0.050503,0.306670,0.662424,-20.016846,-23.628662,-21.650864,,,,,,,5
1508446924.434968,-0.342988,1.103632,1.938619,-1.136149,1.903448,0.691488,-0.151456,-0.892849,-0.424125,0.066602,0.397716,0.701148,-19.492565,-22.745663,-23.030903,,,,,,,5
1508446924.454954,-0.319746,1.083499,1.949738,-0.688412,1.512639,0.492587,-0.147180,-0.883601,-0.444507,0.087075,0.403087,0.716815,-19.211575,-22.361650,-23.635136,,,,,,,5
1508446924.474979,-0.306768,1.073549,1.962316,-0.180143,1.005375,0.417608,-0.144046,-0.878899,-0.454739,0.197757,0.410759,0.684399,-18.489216,-21.625317,-24.864477,,,,,,,5
1508446924.495003,-0.312350,1.074160,1.983301,0.400281,0.435953,0.501824,-0.146418,-0.879190,-0.453416,0.310373,0.412287,0.673433,-18.288656,-21.479422,-25.137764,,,,,,,5
1508446924.515014,-0.335078,1.086385,2.012715,1.030997,0.019893,0.400241,-0.153138,-0.884949,-0.439788,0.486421,0.418961,0.546066,-18.331064,-21.553490,-25.043297,,,,,,,5
1508446924.535027,-0.364844,1.109109,2.041618,1.399003,-0.328674,0.117664,-0.158941,-0.895302,-0.416139,0.607245,0.409218,0.307832,-18.553749,-22.104370,-24.390631,,,,,,,5
1508446924.555026,-0.396814,1.135790,2.064375,1.399611,-0.704516,-0.122183,-0.162870,-0.906867,-0.388671,0.502561,0.279136,0.059402,-18.725418,-22.603218,-23.794979,,,,,,,5
1508446924.575050,-0.426410,1.161678,2.082051,1.280513,-0.706883,-0.209412,-0.164533,-0.917472,-0.362180,0.294492,0.004966,-0.299761,-18.923986,-23.128677,-23.123466,,,,,,,5
1508446924.595063,-0.452000,1.178501,2.091012,0.398898,-0.910172,-0.148699,-0.166980,-0.924034,-0.343917,0.099048,-0.390846,-1.236512,-19.290695,-24.022631,-21.875328,,,,,,,5
1508446924.615052,-0.464611,1.173123,2.087820,-0.401398,-0.651579,0.161119,-0.173528,-0.921965,-0.346221,-0.383418,-0.405580,-1.147690,-19.553522,-24.055958,-21.603664,,,,,,,5
1508446924.635085,-0.478127,1.169889,2.095976,0.119912,-0.108715,0.243559,-0.179563,-0.920707,-0.346490,-0.470614,-0.216103,-0.630515,-19.816534,-23.890614,-21.547421,,,,,,,5
1508446924.655098,-0.488217,1.171185,2.110447,0.186798,0.363902,0.218915,-0.182490,-0.921212,-0.343606,-0.390508,-0.229987,-0.246710,-20.001389,-23.818424,-21.456348,,,,,,,5
1508446924.675110,-0.491243,1.169956,2.127280,0.039387,0.737437,0.384081,-0.184062,-0.920733,-0.344051,-0.120457,-0.306836,-0.187245,-19.922935,-23.766273,-21.586769,,,,,,,5
1508446924.695121,-0.495158,1.169766,2.151803,0.416137,1.021999,0.400183,-0.185491,-0.920659,-0.343481,-0.023967,-0.243067,-0.019159,-19.850965,-23.696407,-21.729404,,,,,,,5
1508446924.715122,-0.510946,1.180669,2.179068,0.793120,-0.122379,0.083006,-0.185971,-0.924860,-0.331735,0.319165,-0.260869,-0.152412,-19.622040,-23.689461,-21.943851,,,,,,,5
1508446924.735145,-0.528034,1.186673,2.191212,0.039202,0.216719,0.030190,-0.188811,-0.927127,-0.323706,-0.008943,-0.420605,0.294012,-19.743130,-24.041447,-21.446800,,,,,,,5
1508446924.755155,-0.495415,1.181594,2.190828,-0.346334,1.939564,0.201864,-0.180389,-0.925212,-0.333830,-0.133957,-0.236272,0.399534,-19.628862,-24.025627,-21.569069,,,,,,,5
1508446924.775150,-0.485139,1.174953,2.201370,0.277920,0.761663,0.360514,-0.179811,-0.922672,-0.341094,0.169450,0.347064,0.944823,-18.829275,-23.685690,-22.631706,,,,,,,5
1508446924.795181,-0.496856,1.194494,2.236091,1.503073,0.983556,-0.099822,-0.175166,-0.930030,-0.323050,0.328090,0.174003,1.039358,-18.502220,-23.989878,-22.580994,,,,,,,5
1508446924.815184,-0.509445,1.224906,2.247875,1.253898,-0.823619,-0.786811,-0.165344,-0.940774,-0.295982,0.200974,0.070581,0.747948,-18.269690,-24.368904,-22.363424,,,,,,,5
1508446924.835206,-0.523529,1.251891,2.246047,1.236073,-0.324297,-0.478870,-0.156745,-0.949579,-0.271533,-0.039499,-0.170340,0.911701,-18.156267,-25.575611,-21.070969,,,,,,,5
1508446924.855217,-0.554419,1.279914,2.292928,1.721136,1.043292,0.003174,-0.150984,-0.957991,-0.243837,-0.089433,-0.079957,0.702242,-17.990906,-26.087101,-20.580040,,,,,,,5
1508446924.875228,-0.610830,1.307785,2.364948,1.632906,0.327756,0.125415,-0.149116,-0.965612,-0.212976,-0.298607,-0.131740,0.107217,-17.615379,-26.782677,-20.003357,,,,,,,5
1508446924.895242,-0.695170,1.329284,2.456467,1.533629,0.246602,0.294893,-0.153193,-0.970977,-0.183671,-0.101079,-0.209183,0.243485,-17.595863,-27.481920,-19.049339,,,,,,,5
1508446924.915244,-0.798933,1.350596,2.569503,1.756347,0.302359,0.172199,-0.156526,-0.975854,-0.152346,0.177629,-0.097129,0.092760,-17.626892,-27.852978,-18.473009,,,,,,,5
1508446924.935262,-0.939156,1.372678,2.714426,1.906730,-0.111061,0.145444,-0.158849,-0.980439,-0.116219,0.223440,-0.034118,0.031685,-17.619600,-28.283998,-17.813274,,,,,,,5
1508446924.955277,-1.122239,1.388929,2.894504,1.820469,-0.354013,0.224404,-0.162974,-0.983508,-0.078435,0.207239,0.150973,0.058904,-17.814074,-29.166296,-16.116249,,,,,,,5
1508446924.975282,-1.312339,1.393503,3.083398,1.516370,-0.107406,0.523403,-0.170508,-0.984325,-0.045077,0.168799,0.201137,0.096194,-18.000774,-29.514015,-15.252635,,,,,,,5
1508446924.995298,-1.470994,1.388528,-3.038390,1.332238,0.135584,0.414528,-0.180359,-0.983435,-0.018060,0.265122,0.056448,0.191400,-18.246357,-29.720711,-14.542955,,,,,,,5
1508446925.015313,-1.605127,1.388676,-2.898503,1.263087,0.052720,-0.203657,-0.181009,-0.983462,0.006217,0.232309,0.138735,0.112970,-18.482132,-29.940937,-13.773117,,,,,,,5
1508446925.035321,-1.786821,1.394876,-2.721081,1.740242,-0.570800,-0.718721,-0.170947,-0.984566,0.037514,0.008105,0.271858,0.065162,-18.285625,-30.608749,-12.509524,,,,,,,5
1508446925.055335,-2.050442,1.394090,-2.472645,2.182100,-1.077236,-0.567457,-0.155952,-0.984428,0.081120,-0.096093,-0.043404,0.033107,-18.285625,-30.608749,-12.509524,,,,,,,5
1508446925.075328,-2.288775,1.373931,-2.250173,2.292164,-0.926316,-0.227846,-0.147311,-0.980684,0.128676,-0.050870,-0.148924,-0.044417,-17.960424,-31.940100,-9.219590,,,,,,,5
1508446925.095359,-2.465326,1.343131,-2.086876,2.299511,-0.810428,-0.200014,-0.141265,-0.974196,0.176030,0.042312,-0.073350,-0.135259,-17.987160,-32.388641,-7.428712,,,,,,,5
1508446925.115354,-2.612029,1.309277,-1.958462,2.245836,-1.373066,-0.397860,-0.130607,-0.965998,0.223134,0.121223,-0.066671,-0.314290,-17.957920,-32.686852,-6.068813,,,,,,,5
1508446925.135380,-2.743923,1.275038,-1.858769,2.073749,-1.945801,-0.463598,-0.112876,-0.956581,0.268721,0.131278,0.029518,-0.338210,-17.793297,-33.143341,-3.558818,,,,,,,5
1508446925.155395,-2.842640,1.241999,-1.791310,1.760367,-1.533172,-0.383888,-0.095102,-0.946431,0.308583,0.126199,0.008504,-0.340718,-17.651934,-33.346004,-2.049606,,,,,,,5
1508446925.175392,-2.913072,1.217700,-1.743087,1.109870,-1.094649,-0.545443,-0.078338,-0.938306,0.336815,0.150664,-0.194384,-0.634773,-17.420265,-33.527878,-0.404276,,,,,,,5
1508446925.195419,-2.977582,1.210201,-1.696150,0.191496,-1.085616,-0.835174,-0.057609,-0.935687,0.348097,0.044212,-0.227018,-0.720991,-16.891016,-33.790989,0.781335,,,,,,,5
1508446925.215431,-3.050902,1.215684,-1.645809,-0.328911,-1.406353,-0.888691,-0.031490,-0.937607,0.346267,-0.090520,-0.256683,-0.609588,-16.424482,-34.011539,1.095049,,,,,,,5
1508446925.235440,-3.110466,1.225567,-1.608797,-0.459720,-1.045771,-0.492290,-0.010532,-0.940998,0.338249,-0.335538,-0.304028,-0.266395,-15.949919,-34.230721,1.267076,,,,,,,5
1508446925.255455,-3.134312,1.233732,-1.598332,-0.427783,-0.565015,-0.017852,-0.002408,-0.943730,0.330709,-0.497104,-0.367214,-0.714514,-15.475167,-34.447613,1.276294,,,,,,,5
1508446925.275444,-3.138868,1.248301,-1.608726,-0.974330,-0.879260,0.261686,-0.000864,-0.948448,0.316933,-0.550391,-0.465356,-1.125176,-15.495865,-34.442970,1.143520,,,,,,,5
1508446925.295476,-3.132089,1.277060,-1.634551,-1.696577,-0.747646,0.422988,-0.002751,-0.957169,0.289517,-0.329097,-0.540466,-0.790753,-15.617785,-34.396580,0.841243,,,,,,,5
1508446925.315490,-3.113336,1.317390,-1.661297,-2.242706,-0.205220,0.218719,-0.007083,-0.968064,0.250602,0.193179,-0.451934,-0.584846,-16.004028,-34.222744,-0.649955,,,,,,,5
1508446925.335481,-3.114961,1.369452,-1.660363,-2.766975,0.086666,-0.236840,-0.005325,-0.979799,0.199916,0.437714,-0.364150,-0.195415,-16.054062,-34.155563,-1.847227,,,,,,,5
1508446925.355511,3.138087,1.426016,-1.622395,-2.802080,0.493089,-0.370980,0.000506,-0.989538,0.144274,0.184980,-0.335551,0.333311,-15.931855,-34.105190,-3.280157,,,,,,,5
1508446925.375526,3.086771,1.479119,-1.566603,-2.554041,-0.085340,-0.178781,0.005016,-0.995801,0.091411,-0.087780,-0.490817,0.407551,-15.648112,-33.977829,-5.328352,,,,,,,5
1508446925.395537,3.014043,1.526872,-1.504836,-2.320004,-0.751526,0.130358,0.005586,-0.999035,0.043553,-0.306458,-0.460575,0.313594,-15.557026,-33.538742,-7.802513,,,,,,,5
1508446925.415522,-0.744148,1.566418,2.232384,-2.361194,-1.205331,0.676954,-0.002966,-0.999990,-0.003221,-0.392023,-0.414515,0.139864,-15.557026,-33.538742,-7.802513,,,,,,,5
1508446925.435551,-0.451935,1.512250,1.916104,-2.563635,-1.082893,1.330193,-0.025553,-0.998287,-0.052638,-0.367651,-0.447163,-0.040456,-16.770332,-32.271503,-10.249575,,,,,,,5
1508446925.455572,-0.493884,1.451363,1.948287,-2.678470,-0.050525,1.553622,-0.056483,-0.992876,-0.104911,0.008998,-0.460111,0.104270,-17.860952,-31.193169,-11.649904,,,,,,,5
1508446925.475570,-0.479363,1.390697,1.948332,-2.645606,1.088486,1.309864,-0.082616,-0.983826,-0.158938,0.185003,-0.419601,0.256060,-18.320475,-30.590780,-12.502481,,,,,,,5
1508446925.495575,-0.439675,1.336035,1.934770,-2.422643,1.378296,0.980788,-0.099010,-0.972570,-0.210487,0.161449,-0.059168,0.411675,-18.981062,-28.795284,-15.436924,,,,,,,5
1508446925.515608,-0.406022,1.285978,1.927761,-2.284145,1.275117,0.963752,-0.110977,-0.959713,-0.258139,0.062454,0.082866,0.441397,-19.068710,-27.663498,-17.287651,,,,,,,5
1508446925.535612,-0.399327,1.236396,1.939038,-2.140542,0.614146,1.231689,-0.127605,-0.944607,-0.302381,0.115444,0.140042,0.462034,-19.126228,-27.070553,-18.141670,,,,,,,5
1508446925.555633,-0.410036,1.190472,1.959764,-1.848641,0.431134,1.192435,-0.147985,-0.928544,-0.340450,0.364080,0.284974,0.632869,-19.724308,-25.158276,-20.143499,,,,,,,5
1508446925.575644,-0.409520,1.152391,1.973699,-1.512902,0.813388,0.886719,-0.161778,-0.913738,-0.372707,0.343296,0.339321,0.669704,-20.020491,-24.015049,-21.218035,,,,,,,5
1508446925.595634,-0.395545,1.122383,1.982040,-1.186942,1.259715,0.674669,-0.167047,-0.901136,-0.400062,0.225686,0.344511,0.690864,-20.038422,-23.526966,-21.741467,,,,,,,5
1508446925.615668,-0.379549,1.097987,1.992834,-0.906993,1.286257,0.712137,-0.168722,-0.890293,-0.422980,0.092779,0.414646,0.681860,-19.703255,-22.315956,-23.270742,,,,,,,5
1508446925.635682,-0.366423,1.081530,2.011180,-0.450282,1.523872,0.682015,-0.168383,-0.882678,-0.438779,0.126162,0.415515,0.665174,-19.451471,-21.830635,-23.933479,,,,,,,5
1508446925.655690,-0.358048,1.073851,2.033955,0.017363,1.321541,0.613319,-0.167073,-0.879043,-0.446509,0.202015,0.403137,0.622489,-19.121830,-21.470345,-24.517904,,,,,,,5
1508446925.675704,-0.360202,1.075319,2.059203,0.411844,0.768423,0.471352,-0.167579,-0.879742,-0.444940,0.305610,0.400326,0.625909,-18.578190,-21.182487,-25.177385,,,,,,,5
1508446925.695692,-0.370204,1.084633,2.080729,0.739441,0.323201,0.187303,-0.169049,-0.884132,-0.435584,0.385465,0.359535,0.522040,-18.456907,-21.311272,-25.157900,,,,,,,5
1508446925.715708,-0.377330,1.102517,2.093939,1.062766,0.185775,-0.177469,-0.166296,-0.892346,-0.419600,0.409093,0.356046,0.384321,-18.380589,-21.593843,-24.972136,,,,,,,5
1508446925.735738,-0.380592,1.128020,2.099844,1.317760,0.008431,-0.423583,-0.159156,-0.903566,-0.397792,0.387779,0.267564,0.017482,-18.144709,-22.407494,-24.421741,,,,,,,5
1508446925.755749,-0.392085,1.156771,2.107430,1.362571,-0.457672,-0.342645,-0.153724,-0.915509,-0.371769,0.207939,-0.176425,-1.333111,-18.009495,-23.222509,-23.751226,,,,,,,5
1508446925.775762,-0.414496,1.166889,2.100517,-0.339332,-1.846168,-0.304507,-0.158278,-0.919532,-0.359733,-0.028871,-0.412285,-1.957054,-18.009495,-23.222509,-23.751226,,,,,,,5
1508446925.795750,-0.416703,1.159881,2.081177,-0.270055,-0.399824,-0.148453,-0.161676,-0.916756,-0.365267,-0.512503,-0.225716,-0.418836,-18.691387,-23.682507,-22.749035,,,,,,,5
1508446925.815785,-0.417595,1.160093,2.085609,0.075992,0.404433,0.227672,-0.161923,-0.916840,-0.364945,-0.495319,-0.229812,-0.374175,-18.875998,-23.590776,-22.691841,,,,,,,5
1508446925.835783,-0.416365,1.154080,2.101138,-0.207998,0.984509,0.500471,-0.163701,-0.914423,-0.370180,-0.341411,-0.141333,-0.371779,-18.830097,-23.545998,-22.776329,,,,,,,5
1508446925.855810,-0.417069,1.152772,2.130501,0.519943,1.458144,0.563269,-0.164446,-0.913893,-0.371157,0.058565,-0.164690,0.413806,-18.457090,-23.220802,-23.406788,,,,,,,5
1508446925.875822,-0.434077,1.168567,2.170194,1.293995,0.400742,0.267536,-0.164642,-0.920191,-0.355165,0.519729,-0.547507,0.536440,-18.097643,-23.448601,-23.460310,,,,,,,5
1508446925.895810,-0.464062,1.188787,2.201034,0.915516,0.034724,0.045863,-0.166853,-0.927917,-0.333361,0.571943,-0.526520,0.091539,-18.097643,-23.448601,-23.460310,,,,,,,5
1508446925.915846,-0.442781,1.192900,2.205760,-0.094584,2.118908,-0.138711,-0.158085,-0.929443,-0.333384,-0.117962,-0.007904,0.068491,-17.826672,-24.185444,-22.913357,,,,,,,5
1508446925.935856,-0.398476,1.194127,2.196527,0.089011,1.155323,-0.125148,-0.142722,-0.929895,-0.339008,0.066763,-0.024100,0.308551,-16.793985,-24.221199,-23.644096,,,,,,,5
1508446925.955870,-0.376455,1.204231,2.192314,0.710354,0.866199,-0.383229,-0.131761,-0.933564,-0.333313,0.305376,0.177323,0.957916,-16.514359,-24.277681,-23.782721,,,,,,,5
1508446925.975864,-0.373778,1.227829,2.189229,1.222322,-0.636485,-0.462125,-0.122789,-0.941761,-0.313064,0.041261,0.082447,0.712875,-15.833014,-25.018650,-23.476170,,,,,,,5
1508446925.995892,-0.401746,1.254049,2.201826,1.340074,-0.681310,-0.200324,-0.121796,-0.950254,-0.286677,0.021408,0.079434,0.710658,-16.008057,-25.718433,-22.584330,,,,,,,5
1508446926.015903,-0.442637,1.283542,2.238791,1.774001,0.119637,-0.149288,-0.121353,-0.959025,-0.256016,0.024658,0.042323,0.609165,-16.101774,-26.051689,-22.131201,,,,,,,5
1508446926.035892,-0.491724,1.317497,2.289072,1.887977,0.030333,-0.151609,-0.118319,-0.968091,-0.220908,-0.140088,-0.074924,0.376487,-16.075079,-27.214140,-20.705799,,,,,,,5
1508446926.055928,-0.573770,1.351511,2.369535,1.941068,-0.369500,0.046569,-0.118077,-0.976053,-0.182697,-0.248287,-0.104895,0.238666,-16.055471,-28.024412,-19.611267,,,,,,,5
1508446926.075939,-0.704620,1.378583,2.495536,1.791566,-0.314422,0.280685,-0.123740,-0.981584,-0.145539,-0.062097,-0.137068,0.068131,-16.226755,-28.540901,-18.704466,,,,,,,5
1508446926.095951,-0.864211,1.401366,2.653213,1.847145,-0.210870,0.130029,-0.128250,-0.985681,-0.109475,0.280670,-0.032813,0.067361,-16.525261,-29.249813,-17.294853,,,,,,,5
1508446926.115963,-1.070553,1.423774,2.853602,1.948926,-0.549668,-0.133444,-0.128543,-0.989212,-0.070264,0.236087,0.037811,0.065717,-16.662670,-29.871151,-16.056698,,,,,,,5
1508446926.135954,-1.326627,1.443346,3.096558,1.828249,-1.025399,-0.399921,-0.123335,-0.991889,-0.030728,0.184492,0.048988,0.040310,-16.702980,-30.205538,-15.374768,,,,,,,5
1508446926.155988,-1.625333,1.453543,-2.900332,1.707513,-0.563904,-0.291965,-0.116811,-0.993134,0.006377,0.032918,0.153458,0.096406,-16.730871,-31.170284,-13.275496,,,,,,,5
1508446926.175999,-1.898054,1.451546,-2.634632,1.445195,-0.391060,-0.118316,-0.112654,-0.992898,0.038242,-0.046022,0.138635,0.084957,-16.701664,-31.662176,-12.095816,,,,,,,5
1508446926.196012,-2.110428,1.439927,-2.430096,1.408831,-0.566886,0.024991,-0.111952,-0.991449,0.067051,-0.081514,0.163126,0.038433,-16.720844,-31.845314,-11.577435,,,,,,,5
1508446926.216023,-2.291496,1.420279,-2.261582,1.617398,-0.776889,0.139466,-0.112664,-0.988694,0.098953,-0.157173,0.190400,0.013244,-16.951857,-32.290565,-9.884403,,,,,,,5
1508446926.236020,-2.438887,1.392662,-2.129666,1.791958,-0.913767,0.212142,-0.114517,-0.984176,0.135216,-0.051697,0.076187,-0.048042,-17.219501,-32.541382,-8.502642,,,,,,,5
1508446926.256046,-2.559603,1.362280,-2.027032,1.784877,-1.031247,0.033117,-0.113790,-0.978339,0.172929,0.022848,0.029059,-0.103135,-17.361498,-32.652721,-7.754086,,,,,,,5
1508446926.276060,-2.663651,1.334444,-1.940568,1.627650,-0.956525,-0.191720,-0.107702,-0.972199,0.207919,0.102117,-0.028992,-0.162021,-17.560720,-33.001434,-5.502190,,,,,,,5
1508446926.296052,-2.756101,1.307570,-1.866010,1.613018,-1.076990,-0.314378,-0.097838,-0.965555,0.241103,0.115203,-0.078131,-0.234862,-17.519499,-33.181763,-4.448082,,,,,,,5
1508446926.316082,-2.842575,1.278546,-1.802015,1.687721,-1.343747,-0.335258,-0.084871,-0.957598,0.275324,0.065935,-0.081205,-0.351068,-17.426062,-33.358654,-3.358605,,,,,,,5
1508446926.336094,-2.917699,1.247760,-1.753549,1.619569,-1.489089,-0.289081,-0.070482,-0.948276,0.309524,0.034258,-0.124264,-0.407043,-17.182264,-33.639118,-0.962865,,,,,,,5
1508446926.356106,-2.975741,1.223172,-1.723472,1.059373,-1.429083,-0.226581,-0.056241,-0.940185,0.335990,0.040082,-0.190781,-0.408027,-17.011600,-33.735470,0.520652,,,,,,,5
1508446926.376116,-3.017438,1.209167,-1.706697,0.584302,-1.225742,-0.173917,-0.043813,-0.935321,0.351076,0.076970,-0.241726,-0.419374,-16.927118,-33.764366,1.089895,,,,,,,5
1508446926.396131,-3.058268,1.203298,-1.690846,0.113048,-1.474688,-0.348355,-0.029902,-0.933229,0.358036,0.022304,-0.245299,-0.573612,-16.661198,-33.838108,2.265981,,,,,,,5
1508446926.416142,-3.107081,1.209708,-1.672112,-0.532372,-1.461244,-0.247198,-0.012190,-0.935513,0.353082,-0.423357,-0.358265,-0.490533,-16.327591,-33.969448,2.689619,,,,,,,5
1508446926.436130,-3.123799,1.225112,-1.676645,-0.864665,-0.861261,0.242425,-0.006029,-0.940844,0.338787,-0.496580,-0.372892,-0.597820,-16.327591,-33.969448,2.689619,,,,,,,5
1508446926.456150,-3.113694,1.246230,-1.704881,-1.245266,-0.840983,0.515067,-0.008896,-0.947789,0.318773,-0.483887,-0.582988,-0.947069,-16.432781,-33.952454,2.223084,,,,,,,5
1508446926.476177,-3.082359,1.281270,-1.753261,-2.114602,-0.552976,0.719993,-0.016901,-0.958379,0.284997,-0.343389,-0.618662,-0.872919,-16.812151,-33.808964,1.432879,,,,,,,5
1508446926.496188,-3.019995,1.329535,-1.815471,-2.624672,0.499126,0.451457,-0.028982,-0.971037,0.237164,0.099538,-0.445589,-0.879727,-17.047985,-33.712505,0.762074,,,,,,,5
1508446926.516202,-2.964294,1.381821,-1.856195,-2.648242,0.919684,-0.194719,-0.033132,-0.982197,0.184907,0.345647,-0.377361,-0.019700,-17.376593,-33.486313,-2.113914,,,,,,,5
1508446926.536212,-2.934248,1.437478,-1.865352,-2.776463,1.018285,-0.573687,-0.027364,-0.991126,0.130077,0.064855,-0.379403,0.495549,-17.066074,-33.438717,-4.283542,,,,,,,5
1508446926.556224,-2.938834,1.492501,-1.852447,-2.594838,-0.058111,-0.618786,-0.015750,-0.996936,0.076614,-0.037518,-0.403439,0.605348,-16.821671,-33.406338,-5.366143,,,,,,,5
1508446926.576237,-2.853613,1.540626,-1.949737,-2.249368,-0.839304,-0.068182,-0.008568,-0.999545,0.028923,-0.389031,-0.496518,0.403678,-16.329483,-33.157833,-7.852002,,,,,,,5
1508446926.596243,-0.884457,1.545584,2.340077,-2.389288,-1.277714,0.916285,-0.019501,-0.999682,-0.015975,-0.472762,-0.540326,0.110931,-16.546148,-32.837963,-8.697178,,,,,,,5
1508446926.616259,-0.591535,1.486083,2.036496,-2.880925,0.127129,1.574496,-0.047183,-0.996414,-0.070235,-0.527875,-0.464554,-0.044664,-17.157257,-32.279388,-9.561231,,,,,,,5
1508446926.636273,-0.528417,1.419192,1.998539,-2.948767,1.865989,1.513495,-0.076141,-0.988530,-0.130425,-0.021133,-0.369624,0.269738,-18.464142,-30.515110,-12.476025,,,,,,,5
1508446926.656281,-0.452979,1.358786,1.966621,-2.645554,2.206970,0.944488,-0.092092,-0.977610,-0.189203,0.266851,-0.240591,0.437281,-18.665905,-29.238487,-14.981407,,,,,,,5
1508446926.676294,-0.381553,1.309766,1.933536,-2.312429,1.798479,0.532744,-0.096098,-0.966125,-0.239517,0.333891,-0.156098,0.482376,-18.582418,-28.673183,-16.133507,,,,,,,5
1508446926.696308,-0.333979,1.263396,1.911522,-2.255580,1.041991,0.510281,-0.099188,-0.953123,-0.285863,0.261129,0.155272,0.470296,-18.173485,-27.141903,-18.994450,,,,,,,5
1508446926.716319,-0.309603,1.218092,1.902779,-2.139593,0.700342,0.648332,-0.105248,-0.938442,-0.329013,0.217171,0.326183,0.598803,-18.113321,-26.065071,-20.500420,,,,,,,5
1508446926.736330,-0.303826,1.175375,1.910477,-1.892882,0.646707,0.840918,-0.115240,-0.922834,-0.367555,0.237341,0.357267,0.655457,-18.146481,-25.501381,-21.169140,,,,,,,5
1508446926.756345,-0.304178,1.136789,1.926495,-1.660904,0.743435,0.891884,-0.125947,-0.907288,-0.401206,0.273468,0.427841,0.714835,-18.271751,-24.363369,-22.367767,,,,,,,5
1508446926.776354,-0.302879,1.103403,1.942195,-1.360425,0.779979,0.754910,-0.134388,-0.892746,-0.430052,0.235554,0.360611,0.708037,-18.365929,-22.756447,-23.928738,,,,,,,5
1508446926.796354,-0.295726,1.080046,1.949179,-0.918892,0.572405,0.398514,-0.137350,-0.881979,-0.450830,0.174139,0.343268,0.717798,-18.365929,-22.756447,-23.928738,,,,,,,5
1508446926.816379,-0.284643,1.067332,1.946683,-0.513756,0.472429,0.122820,-0.135483,-0.875916,-0.463050,0.055573,0.393479,0.704673,-18.128757,-21.533722,-25.207035,,,,,,,5
1508446926.836390,-0.270534,1.062988,1.946441,-0.084663,0.671721,0.065822,-0.129952,-0.873812,-0.468577,0.006219,0.370425,0.690058,-17.830320,-21.347855,-25.575310,,,,,,,5
1508446926.856401,-0.266712,1.066788,1.951427,0.439444,0.318600,0.023033,-0.127284,-0.875654,-0.465864,0.248287,0.331235,0.638822,-17.695351,-21.320898,-25.691273,,,,,,,5
1508446926.876415,-0.267615,1.083284,1.956682,1.068136,0.059397,-0.183858,-0.123868,-0.883501,-0.451755,0.355633,0.210085,0.388019,-17.459955,-21.723686,-25.514290,,,,,,,5
1508446926.896426,-0.277042,1.111861,1.960998,1.565934,-0.501276,-0.344143,-0.121164,-0.896525,-0.426102,0.294779,0.132441,0.046783,-17.419853,-22.455109,-24.901094,,,,,,,5
1508446926.916436,-0.299161,1.145941,1.967486,1.707766,-0.989976,-0.330565,-0.121480,-0.911098,-0.393881,0.209370,0.086498,-0.161707,-17.479439,-22.911228,-24.439571,,,,,,,5
1508446926.936448,-0.336784,1.178511,1.981412,1.494748,-1.413174,-0.170803,-0.126333,-0.924038,-0.360824,-0.148463,-0.066166,-1.081421,-17.987690,-24.266739,-22.700577,,,,,,,5
1508446926.956441,-0.390248,1.194844,2.002858,0.549706,-1.629011,0.240743,-0.139674,-0.930159,-0.339553,-0.579519,-0.239336,-1.174775,-18.488028,-24.711166,-21.801348,,,,,,,5
1508446926.976473,-0.433173,1.198167,2.035356,0.368266,-0.025525,0.638672,-0.152818,-0.931373,-0.330440,-0.653350,-0.219597,-0.716954,-19.078854,-24.830986,-21.146324,,,,,,,5
1508446926.996486,-0.462369,1.196532,2.075999,0.161304,0.649292,0.674740,-0.163078,-0.930777,-0.327200,-0.322259,-0.229532,-0.222803,-19.558607,-24.675133,-20.888905,,,,,,,5
1508446927.016480,-0.469801,1.192097,2.105906,0.000491,1.231025,0.529047,-0.167372,-0.929146,-0.329657,-0.081896,-0.257621,0.009314,-19.544323,-24.520950,-21.082933,,,,,,,5
1508446927.036508,-0.461334,1.189029,2.126286,0.106192,1.339699,0.331959,-0.165843,-0.928008,-0.333613,0.022319,-0.303819,0.071223,-19.347748,-24.368990,-21.437460,,,,,,,5
1508446927.056522,-0.462692,1.193888,2.148558,0.574114,0.670918,0.238424,-0.164281,-0.929807,-0.329349,0.303228,-0.427966,-0.284420,-18.788847,-24.310236,-21.994076,,,,,,,5
1508446927.076532,-0.463775,1.200936,2.165069,0.301720,1.045328,0.027769,-0.161702,-0.932378,-0.323302,0.019170,-0.324031,0.363173,-18.595875,-24.476719,-21.973423,,,,,,,5
1508446927.096544,-0.441659,1.208396,2.182582,0.718157,2.243046,0.224831,-0.151536,-0.935049,-0.320501,-0.003463,-0.317317,0.908331,-18.327057,-24.535194,-22.133478,,,,,,,5
1508446927.116555,-0.426043,1.215825,2.201153,0.159950,1.265403,0.055514,-0.143638,-0.937656,-0.316494,0.629218,0.023609,0.664623,-17.477510,-24.741779,-22.586027,,,,,,,5
1508446927.136568,-0.412453,1.228190,2.217556,1.215401,1.494567,-0.174104,-0.134666,-0.941882,-0.307771,0.671333,0.258761,0.605028,-16.538464,-24.996769,-23.008442,,,,,,,5
1508446927.156553,-0.399914,1.261349,2.208788,1.358556,-0.783962,-1.013664,-0.118566,-0.952502,-0.280503,0.521475,0.264071,0.308090,-16.154039,-25.356915,-22.887144,,,,,,,5
,,,,,,,,,,,,,,,,42.293313,-71.264177,60.282120,-1.000000,-1.000000,1508446927.131887,5
1508446927.196595,-0.439763,1.312190,2.213113,1.538583,-0.111370,-0.037428,-0.108872,-0.966747,-0.231401,-0.071075,0.124676,0.719759,-15.961837,-26.620167,-21.548412,,,,,,,5
1508446927.176578,-0.406269,1.286629,2.187808,0.987410,-1.162474,-0.554914,-0.110793,-0.959895,-0.257537,-0.069154,0.117824,0.745895,-15.961837,-26.620167,-21.548412,,,,,,,5
1508446927.216614,-0.508409,1.341466,2.281631,1.657672,-0.268174,0.100789,-0.110659,-0.973819,-0.198573,-0.122648,0.004962,0.148585,-16.091679,-27.550940,-20.242313,,,,,,,5
1508446927.236628,-0.604890,1.366207,2.367146,1.483263,-0.828853,0.128780,-0.115534,-0.979145,-0.167116,-0.091986,-0.123318,0.149721,-16.390081,-28.447638,-18.704140,,,,,,,5
1508446927.256639,-0.725107,1.388975,2.471769,1.554736,-0.844018,0.055892,-0.119923,-0.983516,-0.135332,0.003636,-0.029881,0.133897,-16.767656,-28.954937,-17.555767,,,,,,,5
1508446927.276640,-0.878958,1.412688,2.613274,1.764638,-0.670373,-0.077467,-0.121248,-0.987527,-0.100446,0.025271,0.004403,0.086820,-16.921230,-29.219719,-16.959585,,,,,,,5
1508446927.296651,-1.090652,1.436110,2.814092,1.894701,-0.615584,-0.187085,-0.119096,-0.990944,-0.062025,0.022874,0.067314,0.090192,-17.162357,-30.122751,-15.027343,,,,,,,5
1508446927.316672,-1.367929,1.451336,3.084350,1.815620,-0.369810,-0.091725,-0.116733,-0.992873,-0.024012,0.016223,0.057067,0.065088,-17.204157,-30.579193,-14.024179,,,,,,,5
1508446927.336686,-1.654073,1.452277,-2.918453,1.573646,-0.445539,0.088291,-0.117833,-0.992985,0.009836,-0.015758,0.055317,-0.032586,-17.244961,-30.966492,-13.093335,,,,,,,5
1508446927.356699,-1.888965,1.444636,-2.691931,1.340455,-0.495273,0.108689,-0.119511,-0.992052,0.039362,0.069309,0.101000,-0.088404,-17.488419,-31.490868,-11.411751,,,,,,,5
1508446927.376595,-2.071159,1.432881,-2.517977,1.285180,-0.512407,0.061371,-0.120625,-0.990505,0.065954,0.045277,0.149303,-0.063177,-17.653284,-31.740849,-10.422469,,,,,,,5
1508446927.396624,-2.222545,1.416838,-2.377727,1.305400,-0.720407,0.126330,-0.121918,-0.988172,0.093019,0.005768,0.215818,-0.091432,-17.728899,-31.859587,-9.919708,,,,,,,5
1508446927.416640,-2.363607,1.399022,-2.252580,1.375095,-0.968692,-0.080908,-0.119967,-0.985283,0.121759,0.066165,0.190514,-0.080469,-18.006798,-32.177761,-8.251947,,,,,,,5
1508446927.436648,-2.508910,1.381336,-2.125502,1.404448,-1.004938,-0.416088,-0.111361,-0.982106,0.151877,0.060595,0.094930,-0.051993,-18.022438,-32.468300,-6.982042,,,,,,,5
1508446927.456660,-2.642391,1.364186,-2.007695,1.315149,-0.827938,-0.546590,-0.098207,-0.978732,0.180109,0.047823,0.054980,-0.052042,-17.943010,-32.641323,-6.351382,,,,,,,5
1508446927.476651,-2.758870,1.344499,-1.904477,1.418525,-0.776181,-0.615970,-0.083791,-0.974504,0.208137,0.120625,-0.044951,-0.091927,-17.688396,-32.986229,-5.174661,,,,,,,5
