timestamp(unix),attitude_roll(radians),attitude_pitch(radians),attitude_yaw(radians),rotation_rate_x(radians/s),rotation_rate_y(radians/s),rotation_rate_z(radians/s),gravity_x(G),gravity_y(G),gravity_z(G),user_acc_x(G),user_acc_y(G),user_acc_z(G),magnetic_field_x(microteslas),magnetic_field_y(microteslas),magnetic_field_z(microteslas),latitude(degree),longitude(degree),altitude(meter),speed(m/s),course(degree),timestamp(unix),User Mark
1508446557.781778,0.023883,0.043996,-0.019998,0.118657,0.012463,-0.001710,0.023857,-0.043981,-0.998747,0.022774,0.070028,0.013579,-9.933161,-15.047467,-44.543144,,,,,,,5
1508446557.801790,0.024056,0.045338,-0.019945,0.029204,0.012538,0.006069,0.024029,-0.045322,-0.998683,0.002643,0.002750,-0.008442,-9.923801,-15.122302,-44.519882,,,,,,,5
1508446557.821798,0.024475,0.045338,-0.019892,-0.009120,0.023158,-0.000627,0.024447,-0.045322,-0.998673,-0.008731,-0.006405,0.002824,-9.905780,-15.159278,-44.511318,,,,,,,5
,,,,,,,,,,,,,,,,42.293272,-71.264176,58.601524,-1.000000,-1.000000,1508446544.262111,5
1508446557.841795,0.024931,0.045094,-0.019984,-0.011235,0.016763,-0.007038,0.024903,-0.045079,-0.998673,-0.004457,0.001271,0.000672,-9.894502,-15.154675,-44.515396,,,,,,,5
,,,,,,,,,,,,,,,,42.293272,-71.264176,58.601524,-1.000000,-1.000000,1508446535.262111,5
,,,,,,,,,,,,,,,,42.293272,-71.264176,58.601524,-1.000000,-1.000000,1508446544.262111,5
1508446557.861794,0.024960,0.045063,-0.020144,0.005813,-0.005558,-0.007979,0.024932,-0.045048,-0.998674,-0.001037,0.004978,0.007615,-9.874910,-15.146198,-44.522629,,,,,,,5
1508446557.881828,0.024890,0.045444,-0.020210,0.024959,0.000841,0.001767,0.024861,-0.045428,-0.998658,-0.004186,0.003726,0.008500,-9.877617,-15.155075,-44.519009,,,,,,,5
1508446557.901812,0.025152,0.045860,-0.020111,0.013227,0.021050,0.007009,0.025123,-0.045844,-0.998633,-0.007484,-0.004022,-0.001688,-9.875196,-15.176138,-44.512367,,,,,,,5
1508446557.921848,0.025609,0.045745,-0.019960,-0.016585,0.020003,0.006762,0.025579,-0.045729,-0.998626,0.001978,-0.002885,-0.012482,-9.853292,-15.180089,-44.515873,,,,,,,5
1508446557.941857,0.025934,0.045300,-0.019819,-0.019778,0.016818,0.006733,0.025904,-0.045284,-0.998638,0.001669,0.003078,-0.005833,-9.842324,-15.164987,-44.523449,,,,,,,5
1508446557.961867,0.026112,0.044963,-0.019606,0.012153,0.022137,0.010231,0.026083,-0.044948,-0.998649,-0.006139,0.008083,0.004279,-9.839368,-15.135768,-44.534046,,,,,,,5
1508446557.981878,0.025098,0.045016,-0.019249,0.032364,0.031709,0.017858,0.025070,-0.045001,-0.998672,-0.030898,0.004901,0.005066,-9.837324,-15.137302,-44.533974,,,,,,,5
,,,,,,,,,,,,,,,,42.293396,-71.264466,58.601524,-1.000000,-1.000000,1508446557.959407,5
1508446558.001863,0.024043,0.045421,-0.018759,0.024883,0.066782,0.023147,0.024016,-0.045405,-0.998680,-0.028289,0.003352,0.012520,-9.904865,-15.148553,-44.515171,,,,,,,5
1508446558.021897,0.025663,0.045804,-0.018209,0.016341,0.090184,0.030547,0.025633,-0.045788,-0.998622,-0.022658,0.002865,0.013255,-9.904576,-15.155123,-44.513000,,,,,,,5
,,,,,,,,,,,,,,,,42.293497,-71.264701,58.601524,-1.000000,-1.000000,1508446557.969892,5
1508446558.041908,0.027725,0.046051,-0.017569,0.014203,0.102938,0.031604,0.027693,-0.046035,-0.998556,0.003283,0.000411,0.006002,-9.853512,-15.157698,-44.523453,,,,,,,5
1508446558.061911,0.031315,0.046124,-0.017116,0.004632,0.107167,0.023010,0.031277,-0.046108,-0.998447,0.017918,0.002925,-0.000684,-9.680847,-15.165468,-44.558670,,,,,,,5
1508446558.081926,0.033419,0.046124,-0.016662,0.011036,0.067867,0.025163,0.033378,-0.046107,-0.998379,0.011789,0.004665,-0.002552,-9.592072,-15.161182,-44.579323,,,,,,,5
1508446558.101937,0.034605,0.046355,-0.016067,0.031264,0.039226,0.035996,0.034561,-0.046338,-0.998328,0.002656,0.004697,-0.003412,-9.525282,-15.152987,-44.596432,,,,,,,5
1508446558.121949,0.035318,0.047067,-0.015205,0.040822,0.046699,0.047793,0.035272,-0.047050,-0.998270,-0.002359,0.000312,-0.003210,-9.489390,-15.168561,-44.598789,,,,,,,5
1508446558.141956,0.036440,0.047728,-0.014284,0.017396,0.065818,0.043355,0.036391,-0.047709,-0.998198,-0.001753,-0.002217,0.003584,-9.462171,-15.193109,-44.596214,,,,,,,5
1508446558.161967,0.038055,0.047958,-0.013657,0.004651,0.071070,0.024089,0.038002,-0.047939,-0.998127,0.004478,0.001370,0.006199,-9.426571,-15.205685,-44.599468,,,,,,,5
1508446558.181977,0.039739,0.047873,-0.013325,0.008931,0.057229,0.015595,0.039683,-0.047855,-0.998066,0.008794,0.004794,0.005588,-9.329846,-15.200825,-44.621460,,,,,,,5
1508446558.201985,0.040985,0.048069,-0.012938,0.016376,0.038138,0.025225,0.040926,-0.048051,-0.998006,0.012190,0.004151,0.002584,-9.286371,-15.201090,-44.630436,,,,,,,5
,,,,,,,,,,,,,,,,42.293579,-71.264892,58.601524,-1.000000,-1.000000,1508446558.121763,5
1508446558.221982,0.042173,0.048154,-0.012444,0.007867,0.014778,0.026202,0.042112,-0.048135,-0.997953,0.015520,0.004693,-0.005160,-9.234590,-15.200576,-44.641357,,,,,,,5
,,,,,,,,,,,,,,,,42.293644,-71.265044,58.601524,-1.000000,-1.000000,1508446558.146317,5
1508446558.242006,0.042743,0.047641,-0.012044,-0.001702,0.017938,0.016543,0.042681,-0.047623,-0.997953,-0.002047,0.009644,0.008726,-9.190935,-15.183645,-44.656120,,,,,,,5
,,,,,,,,,,,,,,,,42.293370,-71.264133,58.590046,-1.000000,-1.000000,1508446558.184137,5
1508446558.261991,0.043243,0.047561,-0.011836,0.018535,0.045533,0.007208,0.043181,-0.047543,-0.997935,-0.009581,0.012082,0.009959,-9.186001,-15.172260,-44.661007,,,,,,,5
1508446558.282017,0.043326,0.048015,-0.011532,0.038734,0.072112,0.016977,0.043262,-0.047997,-0.997910,-0.024036,0.001442,0.002473,-9.159958,-15.177075,-44.664722,,,,,,,5
1508446558.302036,0.044846,0.048822,-0.011204,0.028073,0.108228,0.014787,0.044777,-0.048803,-0.997804,-0.017144,-0.003550,-0.000746,-9.134300,-15.199169,-44.662460,,,,,,,5
1508446558.322020,0.047511,0.049282,-0.011037,-0.008117,0.125207,0.003854,0.047436,-0.049262,-0.997659,0.008839,-0.013681,0.002984,-9.045793,-15.236069,-44.667900,,,,,,,5
1508446558.342056,0.052227,0.049306,-0.011215,-0.036833,0.107130,-0.008109,0.052140,-0.049286,-0.997423,0.040374,-0.001968,0.008669,-8.846330,-15.242245,-44.705727,,,,,,,5
1508446558.362066,0.053703,0.048593,-0.011356,-0.031482,0.051886,-0.008107,0.053614,-0.048574,-0.997380,0.040167,0.004796,0.011265,-8.737345,-15.221163,-44.734333,,,,,,,5
1508446558.382074,0.054207,0.048108,-0.011529,-0.017613,0.007250,-0.011220,0.054118,-0.048089,-0.997376,0.035299,0.007852,0.012909,-8.691757,-15.195487,-44.751942,,,,,,,5
1508446558.402086,0.053706,0.047847,-0.011798,-0.009061,-0.045838,-0.015387,0.053619,-0.047829,-0.997415,0.035492,0.007134,0.000360,-8.693887,-15.180404,-44.756645,,,,,,,5
1508446558.422090,0.051925,0.047731,-0.012180,-0.000498,-0.118100,-0.020695,0.051842,-0.047713,-0.997515,0.034995,0.006057,-0.005659,-8.732339,-15.177570,-44.750118,,,,,,,5
1508446558.442104,0.049017,0.047858,-0.012586,0.022950,-0.187139,-0.014165,0.048941,-0.047840,-0.997655,0.014841,0.003406,-0.017665,-8.840332,-15.182907,-44.727100,,,,,,,5
1508446558.462115,0.045335,0.048527,-0.012548,0.033540,-0.166867,0.012557,0.045267,-0.048508,-0.997797,-0.010614,-0.006760,-0.007895,-9.029768,-15.210465,-44.679867,,,,,,,5
1508446558.482118,0.042204,0.049153,-0.012267,0.012211,-0.082949,0.008185,0.042141,-0.049133,-0.997903,-0.023723,0.000732,0.009057,-9.192765,-15.239603,-44.636681,,,,,,,5
1508446558.502135,0.041622,0.049068,-0.012373,-0.013350,0.003043,-0.012191,0.041560,-0.049048,-0.997931,-0.018046,0.005209,0.017066,-9.234667,-15.243164,-44.626816,,,,,,,5
1508446558.522146,0.042374,0.048374,-0.012713,-0.033592,0.052957,-0.019774,0.042312,-0.048355,-0.997934,-0.002273,0.005600,0.018136,-9.231026,-15.235913,-44.630043,,,,,,,5
1508446558.542155,0.043369,0.047608,-0.013141,-0.038899,0.041252,-0.026215,0.043307,-0.047590,-0.997928,0.029524,0.004026,0.011905,-9.158692,-15.190828,-44.660305,,,,,,,5
1508446558.562165,0.044814,0.046619,-0.013865,-0.042044,-0.005538,-0.041183,0.044750,-0.046602,-0.997911,0.035694,0.004014,0.010438,-9.131468,-15.167609,-44.673771,,,,,,,5
1508446558.582157,0.043852,0.045749,-0.014747,-0.037734,-0.078809,-0.047521,0.043792,-0.045733,-0.997993,0.033952,0.006380,0.004448,-9.089732,-15.125111,-44.696682,,,,,,,5
1508446558.602184,0.042823,0.044880,-0.015634,-0.034526,-0.137205,-0.039020,0.042767,-0.044865,-0.998077,0.040714,0.002919,-0.005829,-9.167450,-15.100327,-44.689190,,,,,,,5
1508446558.622196,0.039408,0.044181,-0.016340,-0.034497,-0.195633,-0.039064,0.039359,-0.044167,-0.998249,0.046731,0.001747,-0.012982,-9.168111,-15.084387,-44.694435,,,,,,,5
1508446558.642188,0.034739,0.043396,-0.017324,-0.038691,-0.257313,-0.058311,0.034699,-0.043383,-0.998456,0.036910,0.001253,-0.014041,-9.422706,-15.048989,-44.653400,,,,,,,5
1508446558.662214,0.030119,0.042541,-0.018697,-0.040788,-0.275418,-0.072184,0.030087,-0.042528,-0.998642,0.027286,-0.000089,-0.007049,-9.587278,-15.032058,-44.624062,,,,,,,5
1508446558.682223,0.025041,0.041589,-0.020139,-0.049321,-0.240360,-0.073292,0.025017,-0.041577,-0.998822,-0.004219,-0.001087,0.000790,-9.771652,-15.008305,-44.592056,,,,,,,5
1508446558.702235,0.021102,0.040535,-0.021663,-0.051471,-0.173457,-0.080713,0.021083,-0.040524,-0.998956,-0.038524,-0.001713,0.008142,-9.993255,-14.971394,-44.555336,,,,,,,5
1508446558.722240,0.018725,0.039449,-0.023369,-0.052560,-0.091690,-0.090242,0.018709,-0.039439,-0.999047,-0.036608,-0.002339,0.014122,-10.076892,-14.948982,-44.544022,,,,,,,5
1508446558.742253,0.017750,0.038406,-0.025246,-0.049383,-0.034315,-0.096519,0.017736,-0.038397,-0.999105,-0.036275,-0.001139,0.015829,-10.124226,-14.921309,-44.542564,,,,,,,5
1508446558.762264,0.017347,0.037577,-0.027109,-0.032364,-0.023678,-0.089982,0.017334,-0.037568,-0.999144,-0.032974,-0.003066,0.005690,-10.121989,-14.894903,-44.551910,,,,,,,5
1508446558.782258,0.017063,0.037094,-0.028630,-0.019628,-0.009806,-0.070701,0.017051,-0.037086,-0.999167,-0.004081,-0.006829,0.014502,-10.117870,-14.888848,-44.554871,,,,,,,5
1508446558.802283,0.016953,0.036384,-0.030089,-0.045161,-0.017263,-0.080500,0.016941,-0.036376,-0.999195,0.032162,-0.010957,0.001407,-10.104596,-14.882101,-44.560135,,,,,,,5
1508446558.822294,0.015800,0.035172,-0.032046,-0.067442,-0.088514,-0.105227,0.015789,-0.035165,-0.999257,0.054233,-0.010108,0.000111,-10.098886,-14.864738,-44.567226,,,,,,,5
1508446558.842304,0.015721,0.033920,-0.034387,-0.084436,-0.128908,-0.117110,0.015711,-0.033913,-0.999301,0.054922,-0.008308,-0.002209,-10.075678,-14.821681,-44.586815,,,,,,,5
1508446558.862313,0.012534,0.032133,-0.036755,-0.086527,-0.193720,-0.120371,0.012527,-0.032128,-0.999405,0.046646,-0.009147,-0.013366,-10.142464,-14.781514,-44.585007,,,,,,,5
1508446558.882323,0.008674,0.030788,-0.039130,-0.075846,-0.286119,-0.112899,0.008669,-0.030783,-0.999488,0.021421,-0.008706,-0.020775,-10.193306,-14.755774,-44.581940,,,,,,,5
1508446558.902333,0.001846,0.029332,-0.041205,-0.053511,-0.297775,-0.099901,0.001845,-0.029328,-0.999568,-0.021346,0.005371,0.012538,-10.522955,-14.694271,-44.525627,,,,,,,5
1508446558.922345,-0.003598,0.028544,-0.042962,-0.032270,-0.257350,-0.080530,-0.003596,-0.028540,-0.999586,-0.024571,0.005744,0.019514,-10.736068,-14.667940,-44.483414,,,,,,,5
1508446558.942356,-0.009044,0.028165,-0.044459,-0.013145,-0.184054,-0.078187,-0.009040,-0.028162,-0.999563,-0.029671,0.001108,0.015996,-10.973082,-14.661186,-44.427769,,,,,,,5
1508446558.962363,-0.011753,0.027958,-0.046233,-0.013151,-0.113999,-0.095170,-0.011748,-0.027955,-0.999540,-0.016786,-0.003982,0.010298,-11.119311,-14.665508,-44.389973,,,,,,,5
1508446558.982359,-0.013595,0.027545,-0.048262,-0.026989,-0.091713,-0.103786,-0.013590,-0.027542,-0.999528,-0.005530,-0.009034,-0.002425,-11.188910,-14.673724,-44.369759,,,,,,,5
1508446559.002384,-0.015423,0.026917,-0.050285,-0.033383,-0.099127,-0.098520,-0.015416,-0.026914,-0.999519,-0.002558,-0.011019,-0.002709,-11.253264,-14.669063,-44.355026,,,,,,,5
1508446559.022393,-0.017512,0.026374,-0.052063,-0.024885,-0.110765,-0.083552,-0.017505,-0.026371,-0.999499,-0.001324,-0.008892,-0.002698,-11.300840,-14.664207,-44.344536,,,,,,,5
1508446559.042387,-0.019735,0.026081,-0.053633,-0.006796,-0.114997,-0.075953,-0.019727,-0.026078,-0.999465,-0.005115,-0.006057,0.005203,-11.355757,-14.661084,-44.331539,,,,,,,5
1508446559.062412,-0.023895,0.026340,-0.055012,0.024073,-0.143713,-0.069303,-0.023884,-0.026337,-0.999368,-0.026348,0.002670,-0.001731,-11.503434,-14.687098,-44.284824,,,,,,,5
1508446559.082423,-0.028783,0.027306,-0.056136,0.074103,-0.178740,-0.051880,-0.028768,-0.027302,-0.999213,-0.041194,0.002461,-0.014047,-11.670374,-14.731642,-44.226311,,,,,,,5
1508446559.102432,-0.035106,0.029839,-0.056470,0.145378,-0.240210,0.001899,-0.035083,-0.029835,-0.998939,-0.047742,-0.001461,-0.021248,-11.820327,-14.769448,-44.173851,,,,,,,5
1508446559.122440,-0.039750,0.033105,-0.055469,0.165474,-0.208115,0.069168,-0.039718,-0.033099,-0.998663,-0.056718,-0.016477,0.006017,-12.218986,-14.964863,-43.999264,,,,,,,5
1508446559.142452,-0.042557,0.035854,-0.053460,0.123831,-0.090056,0.102986,-0.042517,-0.035846,-0.998452,-0.053629,-0.013714,0.016488,-12.356874,-15.053343,-43.930511,,,,,,,5
1508446559.162462,-0.042829,0.037778,-0.051103,0.093926,0.034313,0.119869,-0.042786,-0.037769,-0.998370,-0.063476,-0.004787,0.027987,-12.452714,-15.131425,-43.876598,,,,,,,5
1508446559.182473,-0.040817,0.039502,-0.048398,0.088507,0.155493,0.140146,-0.040774,-0.039492,-0.998388,-0.081250,-0.001493,0.009557,-12.431765,-15.195613,-43.860352,,,,,,,5
1508446559.202485,-0.039223,0.040929,-0.045332,0.051138,0.330755,0.142125,-0.039180,-0.040917,-0.998394,-0.073582,-0.000846,0.005489,-12.440416,-15.234613,-43.844364,,,,,,,5
1508446559.222491,-0.030935,0.041261,-0.042673,0.006377,0.463521,0.128014,-0.030904,-0.041250,-0.998671,-0.073237,-0.000346,0.009596,-12.228676,-15.234406,-43.903965,,,,,,,5
1508446559.242503,-0.023524,0.041178,-0.040050,0.011679,0.507068,0.128091,-0.023502,-0.041166,-0.998876,-0.050167,0.011931,0.004522,-12.062239,-15.210266,-43.958340,,,,,,,5
1508446559.262512,-0.014189,0.040887,-0.037257,0.045716,0.510296,0.145411,-0.014177,-0.040875,-0.999064,-0.020857,0.021344,-0.003073,-11.452117,-15.186982,-44.129246,,,,,,,5
1508446559.282522,-0.004468,0.042342,-0.034051,0.090411,0.480607,0.168117,-0.004464,-0.042329,-0.999094,-0.025108,0.016542,-0.005347,-11.186606,-15.159197,-44.206833,,,,,,,5
1508446559.302532,0.005182,0.044429,-0.030528,0.108482,0.501882,0.178930,0.005177,-0.044414,-0.999000,-0.024723,0.003337,0.005882,-10.714703,-15.218536,-44.303238,,,,,,,5
1508446559.322541,0.015690,0.046374,-0.026981,0.082906,0.552880,0.176628,0.015672,-0.046358,-0.998802,-0.028306,-0.001433,0.014595,-10.414049,-15.259912,-44.360661,,,,,,,5
1508446559.342552,0.027016,0.047502,-0.023689,0.035013,0.580458,0.157088,0.026982,-0.047484,-0.998507,-0.005620,-0.009248,0.016833,-9.971683,-15.292459,-44.451008,,,,,,,5
1508446559.362553,0.038384,0.047994,-0.020773,0.016947,0.561307,0.144188,0.038330,-0.047976,-0.998113,0.045471,-0.001615,-0.005580,-9.384673,-15.287419,-44.580357,,,,,,,5
1508446559.382572,0.048632,0.048576,-0.017923,0.027623,0.499690,0.145295,0.048556,-0.048557,-0.997640,0.041197,0.000949,-0.005336,-9.054267,-15.280404,-44.651039,,,,,,,5
1508446559.402555,0.058553,0.049394,-0.015169,0.037222,0.502836,0.134729,0.058448,-0.049374,-0.997069,0.029442,0.007428,0.010527,-8.648296,-15.280132,-44.731537,,,,,,,5
1508446559.422581,0.068366,0.050626,-0.012557,0.065977,0.492195,0.133893,0.068226,-0.050605,-0.996386,0.013958,0.009009,0.023684,-8.139099,-15.300920,-44.819889,,,,,,,5
1508446559.442602,0.077850,0.052459,-0.010133,0.091569,0.471942,0.118118,0.077664,-0.052434,-0.995600,0.016834,0.009679,0.019403,-7.841631,-15.333881,-44.861641,,,,,,,5
1508446559.462611,0.085933,0.054714,-0.008184,0.105499,0.361385,0.098984,0.085699,-0.054687,-0.994819,0.048640,-0.004716,-0.013878,-7.465971,-15.401899,-44.902409,,,,,,,5
1508446559.482621,0.092385,0.056526,-0.006423,0.060803,0.332710,0.094335,0.092107,-0.056496,-0.994145,0.048869,-0.014534,-0.007686,-7.114925,-15.492229,-44.928322,,,,,,,5
1508446559.502608,0.099876,0.057251,-0.004635,0.013921,0.398598,0.093998,0.099547,-0.057220,-0.993386,0.029131,0.000899,0.012643,-6.817136,-15.514627,-44.966751,,,,,,,5
1508446559.522640,0.107769,0.057856,-0.002745,0.026703,0.399643,0.090910,0.107381,-0.057824,-0.992535,0.011043,0.005562,0.021328,-6.652217,-15.514652,-44.991436,,,,,,,5
1508446559.542651,0.115630,0.058587,-0.001648,0.031061,0.384586,0.038762,0.115175,-0.058553,-0.991618,0.049941,0.012487,0.024058,-6.149623,-15.534203,-45.056145,,,,,,,5
1508446559.582666,0.130482,0.060181,-0.001174,0.052458,0.192290,0.034534,0.129876,-0.060145,-0.989704,0.062232,0.007151,0.003987,-5.646155,-15.553974,-45.115192,,,,,,,5
1508446559.562654,0.126271,0.059135,-0.001575,0.043935,0.263411,0.017481,0.125716,-0.059101,-0.990304,0.066393,0.006107,0.004587,-5.646155,-15.553974,-45.115192,,,,,,,5
1508446559.602677,0.133982,0.061697,-0.000159,0.081144,0.166929,0.077341,0.133327,-0.061658,-0.989152,0.015476,-0.003543,0.000428,-5.294971,-15.644033,-45.126633,,,,,,,5
1508446559.622662,0.138193,0.064312,0.001372,0.080051,0.170175,0.093306,0.137469,-0.064268,-0.988419,0.014905,-0.009539,0.007431,-5.263349,-15.660307,-45.124691,,,,,,,5
1508446559.642701,0.141436,0.065255,0.002115,0.017360,0.171012,0.019322,0.140665,-0.065209,-0.987908,0.028891,0.002740,0.011818,-5.034451,-15.781342,-45.108639,,,,,,,5
1508446559.662711,0.144991,0.065136,0.002250,-0.015611,0.172020,-0.001180,0.144177,-0.065090,-0.987409,0.069049,0.001476,0.018186,-4.924639,-15.792233,-45.116951,,,,,,,5
1508446559.682710,0.152126,0.064657,0.002068,-0.015599,0.123187,0.005171,0.151223,-0.064612,-0.986386,0.061210,0.002127,0.006054,-4.506439,-15.769150,-45.168701,,,,,,,5
1508446559.702726,0.153720,0.064288,0.002137,-0.019814,0.054119,-0.000239,0.152799,-0.064243,-0.986167,0.047061,0.005665,0.007743,-4.435411,-15.757419,-45.179825,,,,,,,5
1508446559.722721,0.156157,0.063593,0.001995,-0.002741,-0.007514,-0.004404,0.155209,-0.063550,-0.985835,0.033131,0.019712,0.012218,-4.291990,-15.720086,-45.206673,,,,,,,5
1508446559.742751,0.155389,0.063845,0.001749,0.023916,-0.059608,-0.011677,0.154449,-0.063802,-0.985938,0.036438,0.020467,0.009300,-4.303805,-15.723273,-45.204441,,,,,,,5
1508446559.762754,0.155374,0.064081,0.001334,0.035645,-0.109524,-0.007359,0.154432,-0.064038,-0.985926,0.036547,0.007412,-0.005346,-4.275542,-15.731736,-45.204178,,,,,,,5
1508446559.782770,0.152857,0.064419,0.001113,0.004783,-0.132886,-0.009761,0.151947,-0.064374,-0.986290,0.026291,-0.011065,-0.012459,-4.404075,-15.764480,-45.180424,,,,,,,5
1508446559.802780,0.150269,0.064056,0.000745,-0.028196,-0.124435,-0.028127,0.149397,-0.064012,-0.986703,0.030519,-0.008360,-0.000312,-4.491397,-15.763353,-45.172226,,,,,,,5
1508446559.822790,0.149892,0.063000,-0.000070,-0.053712,-0.126616,-0.049635,0.149036,-0.062958,-0.986826,0.034634,0.001175,0.018304,-4.500460,-15.737629,-45.180290,,,,,,,5
1508446559.842800,0.149564,0.061475,-0.001310,-0.060044,-0.168107,-0.069949,0.148726,-0.061436,-0.986968,0.045412,0.003834,0.017471,-4.633967,-15.682270,-45.186043,,,,,,,5
1508446559.862795,0.145856,0.059855,-0.002742,-0.079157,-0.203226,-0.090363,0.145079,-0.059819,-0.987610,0.051103,0.003178,0.014069,-4.614243,-15.638395,-45.203266,,,,,,,5
1508446559.882819,0.144469,0.057535,-0.004718,-0.100390,-0.255332,-0.110808,0.143729,-0.057503,-0.987945,0.059366,0.001854,0.014541,-4.627299,-15.567401,-45.226429,,,,,,,5
1508446559.902830,0.145246,0.054505,-0.007279,-0.112025,-0.334000,-0.133324,0.144521,-0.054478,-0.988001,0.067592,0.002689,0.010019,-4.615849,-15.496230,-45.252033,,,,,,,5
1508446559.922822,0.143993,0.051634,-0.010318,-0.111907,-0.478553,-0.160051,0.143305,-0.051611,-0.988332,0.060613,-0.002741,-0.037089,-4.638446,-15.350780,-45.299271,,,,,,,5
1508446559.942849,0.133022,0.049389,-0.013416,-0.074529,-0.671945,-0.168407,0.132469,-0.049369,-0.989957,0.054925,-0.004998,-0.044757,-4.881814,-15.291529,-45.293739,,,,,,,5
1508446559.962860,0.117807,0.048266,-0.016313,-0.017027,-0.801462,-0.135023,0.117398,-0.048247,-0.991912,0.012912,-0.004655,-0.030182,-5.262507,-15.255865,-45.263123,,,,,,,5
1508446559.982850,0.101837,0.048086,-0.018286,0.012684,-0.725817,-0.084583,0.101544,-0.048068,-0.993669,-0.098767,0.006365,0.017580,-6.103371,-15.253601,-45.158192,,,,,,,5
1508446560.002878,0.089753,0.048265,-0.020141,0.015812,-0.531474,-0.102511,0.089528,-0.048246,-0.994815,-0.110509,0.007276,0.029041,-6.740316,-15.274942,-45.060295,,,,,,,5
1508446560.022889,0.081904,0.048024,-0.022729,-0.015093,-0.320210,-0.147325,0.081718,-0.048006,-0.995499,-0.099434,0.005403,0.031860,-7.075856,-15.296077,-45.001644,,,,,,,5
1508446560.042878,0.077805,0.046902,-0.026036,-0.056646,-0.162002,-0.176297,0.077641,-0.046885,-0.995878,-0.069981,-0.003668,0.024351,-7.412208,-15.299860,-44.946178,,,,,,,5
1508446560.062909,0.075231,0.045374,-0.029322,-0.062004,-0.139645,-0.163547,0.075083,-0.045358,-0.996145,-0.055796,-0.011404,0.012518,-7.453136,-15.286026,-44.944118,,,,,,,5
1508446560.082919,0.071710,0.044194,-0.032149,-0.039664,-0.211783,-0.131475,0.071578,-0.044179,-0.996456,-0.009689,-0.019465,-0.007252,-7.587942,-15.244105,-44.935799,,,,,,,5
1508446560.102929,0.066662,0.043304,-0.034507,-0.038591,-0.277599,-0.117674,0.066550,-0.043291,-0.996844,-0.029121,0.003374,0.008776,-7.766726,-15.230356,-44.909908,,,,,,,5
1508446560.122938,0.060910,0.042323,-0.036849,-0.039646,-0.296721,-0.117697,0.060818,-0.042310,-0.997252,-0.042203,0.010358,0.014281,-7.931474,-15.216997,-44.885635,,,,,,,5
1508446560.142948,0.055269,0.041753,-0.038934,-0.006688,-0.276474,-0.095050,0.055193,-0.041741,-0.997603,-0.071321,0.018792,0.012694,-8.216342,-15.202748,-44.839199,,,,,,,5
1508446560.162959,0.046923,0.041894,-0.040542,0.018824,-0.236085,-0.083097,0.046865,-0.041881,-0.998023,-0.064886,-0.000340,-0.005227,-8.423796,-15.222438,-44.794003,,,,,,,5
1508446560.182953,0.042837,0.042112,-0.042164,0.007087,-0.192516,-0.081031,0.042786,-0.042100,-0.998197,-0.058685,-0.006744,-0.006716,-8.709037,-15.243975,-44.732082,,,,,,,5
1508446560.202973,0.037848,0.042615,-0.043729,-0.037649,-0.145763,-0.083494,0.037805,-0.042602,-0.998377,-0.035134,-0.019959,-0.004477,-8.879494,-15.256128,-44.694416,,,,,,,5
1508446560.222989,0.035592,0.041341,-0.045268,-0.071765,-0.094716,-0.073089,0.035554,-0.041329,-0.998513,-0.029801,-0.017723,-0.002967,-9.032351,-15.278398,-44.656162,,,,,,,5
1508446560.242979,0.034205,0.039663,-0.046654,-0.083494,-0.063899,-0.072098,0.034171,-0.039653,-0.998629,-0.044959,-0.004475,-0.004896,-9.079636,-15.240337,-44.659580,,,,,,,5
1508446560.263004,0.030553,0.038035,-0.047891,-0.061144,-0.054347,-0.069777,0.030526,-0.038026,-0.998810,-0.058404,0.010362,0.001298,-9.132128,-15.154608,-44.678047,,,,,,,5
1508446560.283021,0.029398,0.037363,-0.049215,-0.012172,-0.069218,-0.061931,0.029373,-0.037355,-0.998870,-0.062454,0.010896,0.000381,-9.268724,-15.122663,-44.660736,,,,,,,5
1508446560.303028,0.024832,0.037707,-0.049984,0.052737,-0.106324,-0.028416,0.024812,-0.037698,-0.998981,-0.053499,0.005136,0.003025,-9.441027,-15.119927,-44.625557,,,,,,,5
1508446560.323039,0.019356,0.039761,-0.049743,0.069663,-0.074281,0.026051,0.019340,-0.039751,-0.999022,-0.031013,-0.010374,0.007125,-9.646245,-15.195836,-44.555832,,,,,,,5
1508446560.343049,0.017505,0.040892,-0.049089,0.020653,-0.024314,0.029943,0.017489,-0.040881,-0.999011,-0.021746,-0.006146,0.012439,-9.758946,-15.252869,-44.511784,,,,,,,5
1508446560.363057,0.016529,0.040814,-0.048685,-0.012336,0.007503,0.010529,0.016514,-0.040803,-0.999031,-0.020436,0.000932,0.020774,-9.870029,-15.273391,-44.480240,,,,,,,5
1508446560.383069,0.014482,0.040412,-0.048474,0.000441,0.031898,0.003200,0.014469,-0.040401,-0.999079,-0.033833,0.002590,0.009913,-9.908432,-15.252115,-44.479004,,,,,,,5
1508446560.403077,0.012784,0.040607,-0.048248,0.002553,0.052090,0.007492,0.012773,-0.040596,-0.999094,-0.032137,-0.001732,-0.005072,-9.998516,-15.251381,-44.459091,,,,,,,5
1508446560.423087,0.013115,0.040571,-0.048031,-0.008115,0.085032,0.009559,0.013104,-0.040560,-0.999091,-0.030652,-0.001600,-0.005486,-10.015088,-15.252138,-44.455101,,,,,,,5
1508446560.443099,0.014017,0.040519,-0.047725,-0.004938,0.102044,0.014922,0.014005,-0.040508,-0.999081,-0.006543,-0.000889,0.001049,-10.050826,-15.249574,-44.447914,,,,,,,5
1508446560.463108,0.015921,0.040616,-0.047330,0.003570,0.098875,0.021378,0.015908,-0.040605,-0.999049,-0.001564,-0.001403,-0.002966,-9.934237,-15.242760,-44.476452,,,,,,,5
1508446560.483118,0.017623,0.040837,-0.046913,0.008907,0.080805,0.019279,0.017607,-0.040825,-0.999011,-0.002241,-0.001777,-0.002896,-9.877400,-15.245269,-44.488251,,,,,,,5
1508446560.503111,0.019031,0.041211,-0.046608,0.009993,0.060599,0.012884,0.019014,-0.041200,-0.998970,0.002654,-0.003219,0.002922,-9.832403,-15.253926,-44.495247,,,,,,,5
1508446560.523139,0.021067,0.041647,-0.046439,0.001491,0.037228,0.010667,0.021047,-0.041635,-0.998911,0.016871,-0.001898,0.006281,-9.728976,-15.277772,-44.509800,,,,,,,5
1508446560.543143,0.022136,0.041524,-0.046251,-0.014470,0.021299,0.009458,0.022115,-0.041512,-0.998893,0.018458,-0.001259,0.006355,-9.692282,-15.279476,-44.517220,,,,,,,5
1508446560.563145,0.023402,0.041180,-0.046144,-0.012326,0.008538,0.005207,0.023380,-0.041168,-0.998879,0.009777,0.002639,0.005181,-9.619559,-15.260877,-44.539368,,,,,,,5
1508446560.583168,0.023420,0.041118,-0.046121,0.012185,-0.019113,0.000065,0.023398,-0.041106,-0.998881,0.007135,0.004104,0.003733,-9.600046,-15.254518,-44.545753,,,,,,,5
1508446560.603180,0.022883,0.041476,-0.046189,0.022846,-0.035064,-0.003054,0.022862,-0.041464,-0.998878,-0.002369,-0.000329,-0.003380,-9.606790,-15.259914,-44.542454,,,,,,,5
1508446560.623189,0.021448,0.041909,-0.046243,0.013269,-0.042501,-0.004203,0.021428,-0.041897,-0.998892,-0.008336,-0.001408,-0.002313,-9.665062,-15.285435,-44.521095,,,,,,,5
1508446560.643198,0.020393,0.042023,-0.046341,0.002620,-0.038247,-0.004288,0.020374,-0.042011,-0.998909,-0.009265,-0.000668,0.002007,-9.702198,-15.293470,-44.510254,,,,,,,5
1508446560.663206,0.019519,0.042112,-0.046394,0.004742,-0.031866,-0.002136,0.019501,-0.042099,-0.998923,-0.006104,-0.000626,0.002814,-9.753875,-15.298854,-44.497108,,,,,,,5
1508446560.683219,0.018543,0.042140,-0.046435,-0.001646,-0.021252,-0.005375,0.018526,-0.042127,-0.998940,-0.006929,0.000318,0.005837,-9.798695,-15.302663,-44.485950,,,,,,,5
1508446560.703200,0.017985,0.042057,-0.046614,-0.004835,-0.008525,-0.011780,0.017968,-0.042045,-0.998954,-0.010873,-0.000268,0.005683,-9.817666,-15.301263,-44.482250,,,,,,,5
1508446560.723237,0.017482,0.041999,-0.046821,-0.001645,-0.004275,-0.010685,0.017466,-0.041987,-0.998966,-0.015315,0.000056,0.006793,-9.853030,-15.300405,-44.474720,,,,,,,5
1508446560.743248,0.016592,0.042001,-0.046916,0.001537,-0.005314,-0.003207,0.016577,-0.041989,-0.998981,-0.015631,0.000103,0.004352,-9.872128,-15.300916,-44.470310,,,,,,,5
1508446560.763246,0.015925,0.042106,-0.046926,0.005788,-0.004241,0.001088,0.015911,-0.042094,-0.998987,-0.008510,0.000041,0.001917,-9.910283,-15.304899,-44.460453,,,,,,,5
1508446560.783266,0.015828,0.042260,-0.046869,0.008974,-0.004227,0.005374,0.015813,-0.042248,-0.998982,-0.008412,0.000195,0.001912,-9.923759,-15.309006,-44.456036,,,,,,,5
1508446560.803278,0.015414,0.042359,-0.046759,0.003651,-0.002104,0.004267,0.015400,-0.042346,-0.998984,-0.005420,0.000064,0.000663,-9.937048,-15.313326,-44.451580,,,,,,,5
1508446560.823274,0.015154,0.042356,-0.046669,0.000459,-0.002107,0.003176,0.015140,-0.042343,-0.998988,-0.008884,0.000274,0.004176,-9.958234,-15.314492,-44.446434,,,,,,,5
1508446560.843297,0.014857,0.042322,-0.046585,0.001520,-0.002100,0.005314,0.014843,-0.042310,-0.998994,-0.009243,0.001523,0.002595,-9.959421,-15.314143,-44.446289,,,,,,,5
1508446560.863308,0.014245,0.042405,-0.046427,0.005774,0.000028,0.007480,0.014231,-0.042392,-0.999000,-0.011287,0.000492,-0.000009,-9.987571,-15.312115,-44.440670,,,,,,,5
1508446560.883317,0.013087,0.042522,-0.046208,0.008957,0.011720,0.010710,0.013075,-0.042509,-0.999011,-0.022092,0.000777,0.001620,-10.033622,-15.316451,-44.428799,,,,,,,5
1508446560.903327,0.012893,0.042753,-0.045920,0.016393,0.030852,0.015045,0.012881,-0.042740,-0.999003,-0.026736,0.001038,0.001689,-10.049834,-15.320183,-44.423851,,,,,,,5
1508446560.923337,0.012293,0.043234,-0.045444,0.029146,0.043623,0.024742,0.012281,-0.043221,-0.998990,-0.025678,0.001610,0.006452,-10.095786,-15.326954,-44.411091,,,,,,,5
1508446560.943348,0.012402,0.043772,-0.044846,0.031254,0.067009,0.030101,0.012390,-0.043758,-0.998965,-0.008926,0.001125,0.006610,-10.109335,-15.353162,-44.398956,,,,,,,5
1508446560.963331,0.013846,0.044293,-0.044258,0.021668,0.081879,0.027904,0.013832,-0.044279,-0.998923,-0.004326,0.000852,0.005454,-10.092165,-15.362719,-44.399559,,,,,,,5
1508446560.983341,0.015358,0.044510,-0.043755,0.006795,0.073439,0.022546,0.015343,-0.044496,-0.998892,-0.001259,0.001756,-0.000162,-10.003048,-15.380271,-44.413647,,,,,,,5
1508446561.003377,0.016704,0.044511,-0.043310,0.001469,0.074508,0.023568,0.016686,-0.044496,-0.998870,-0.005807,0.001970,-0.000336,-9.959607,-15.377811,-44.424259,,,,,,,5
1508446561.023375,0.018015,0.044563,-0.042833,0.011050,0.073444,0.024711,0.017996,-0.044548,-0.998845,-0.007987,0.003578,0.001531,-9.913135,-15.369736,-44.437447,,,,,,,5
1508446561.043397,0.019443,0.044676,-0.042370,0.013185,0.069187,0.022596,0.019423,-0.044661,-0.998813,0.002336,0.003127,0.004505,-9.843133,-15.372596,-44.452015,,,,,,,5
1508446561.063407,0.021019,0.044771,-0.041979,0.006802,0.072363,0.018287,0.020997,-0.044756,-0.998777,0.002990,0.003100,0.005659,-9.780046,-15.373716,-44.465553,,,,,,,5
1508446561.083417,0.022613,0.044836,-0.041695,0.005746,0.075529,0.011892,0.022588,-0.044821,-0.998740,0.003062,0.002935,0.004507,-9.746394,-15.371849,-44.473583,,,,,,,5
1508446561.103428,0.024057,0.045051,-0.041518,0.008953,0.061706,0.008714,0.024031,-0.045036,-0.998696,0.001665,-0.004189,-0.007499,-9.647670,-15.373258,-44.494621,,,,,,,5
1508446561.123411,0.025077,0.045426,-0.041369,0.006835,0.047890,0.006556,0.025049,-0.045410,-0.998654,-0.000650,-0.008011,-0.003772,-9.609707,-15.382736,-44.499554,,,,,,,5
1508446561.143424,0.025984,0.045758,-0.041310,-0.002734,0.041502,0.001149,0.025954,-0.045742,-0.998616,0.000291,-0.013157,0.006963,-9.568985,-15.408831,-44.499306,,,,,,,5
1508446561.163457,0.026746,0.045805,-0.041337,0.004726,0.034055,-0.000925,0.026715,-0.045789,-0.998594,0.000949,-0.000506,0.017408,-9.541454,-15.407364,-44.505726,,,,,,,5
1508446561.183442,0.027974,0.046255,-0.041274,0.019609,0.047893,0.008791,0.027940,-0.046238,-0.998540,0.010298,-0.004207,0.012044,-9.484448,-15.420034,-44.513519,,,,,,,5
1508446561.203477,0.028976,0.046683,-0.040939,0.016392,0.050064,0.021543,0.028940,-0.046666,-0.998491,0.009299,-0.003779,0.011995,-9.441622,-15.438332,-44.516281,,,,,,,5
1508446561.223487,0.030666,0.046826,-0.040485,-0.004904,0.034162,0.026679,0.030627,-0.046809,-0.998434,0.017026,0.002680,0.006796,-9.393641,-15.451138,-44.521988,,,,,,,5
1508446561.243497,0.031181,0.045785,-0.039870,-0.018745,0.009754,0.031870,0.031144,-0.045769,-0.998466,-0.001526,0.018166,0.004173,-9.336210,-15.420187,-44.544796,,,,,,,5
1508446561.263506,0.030679,0.045018,-0.039228,-0.011274,-0.022127,0.029778,0.030643,-0.045003,-0.998517,-0.009678,0.019368,0.003216,-9.343783,-15.383384,-44.555931,,,,,,,5
1508446561.283512,0.028934,0.043860,-0.038773,0.005805,-0.059376,0.013920,0.028903,-0.043846,-0.998620,-0.018954,0.023735,0.003839,-9.393406,-15.325212,-44.565544,,,,,,,5
1508446561.303529,0.025650,0.044109,-0.038593,0.031400,-0.108294,0.004512,0.025622,-0.044095,-0.998699,-0.017138,-0.007938,0.021450,-9.556935,-15.289345,-44.543087,,,,,,,5
1508446561.323536,0.022529,0.045739,-0.038467,0.036736,-0.135911,0.006664,0.022504,-0.045723,-0.998701,-0.018811,-0.032387,0.018171,-9.657358,-15.323140,-44.509800,,,,,,,5
1508446561.343547,0.019891,0.046995,-0.038480,-0.019691,-0.076453,-0.010793,0.019867,-0.046978,-0.998698,-0.031662,-0.055607,0.002925,-9.796257,-15.434423,-44.440945,,,,,,,5
1508446561.363553,0.017467,0.046238,-0.039181,-0.053685,-0.075534,-0.055792,0.017447,-0.046222,-0.998779,-0.049338,-0.005017,-0.002808,-9.890332,-15.411100,-44.428200,,,,,,,5
1508446561.383541,0.015525,0.044619,-0.040613,-0.103677,-0.097896,-0.078581,0.015509,-0.044604,-0.998884,-0.041968,0.002810,-0.002565,-9.972836,-15.396297,-44.414886,,,,,,,5
1508446561.403568,0.015103,0.041554,-0.041950,-0.175112,0.031812,-0.059907,0.015089,-0.041542,-0.999023,-0.034041,0.059288,-0.048569,-10.035857,-15.264573,-44.446148,,,,,,,5
1508446561.423586,0.015974,0.036243,-0.042489,-0.148612,0.103126,-0.015979,0.015963,-0.036236,-0.999216,-0.039095,0.076000,-0.065359,-9.983979,-15.153280,-44.495888,,,,,,,5
1508446561.443571,0.017883,0.034327,-0.042624,-0.071957,0.099915,-0.011090,0.017871,-0.034320,-0.999251,-0.053470,0.077396,-0.077150,-9.954492,-14.971478,-44.563984,,,,,,,5
1508446561.463578,0.020722,0.033363,-0.042791,-0.031558,0.169000,0.004202,0.020709,-0.033357,-0.999229,-0.040621,-0.003707,0.056770,-9.797868,-14.881482,-44.628788,,,,,,,5
1508446561.483616,0.024965,0.033905,-0.041452,0.067231,0.254314,0.112621,0.024948,-0.033899,-0.999114,-0.029236,-0.005057,0.109221,-9.680525,-14.869304,-44.658447,,,,,,,5
1508446561.503627,0.032963,0.036065,-0.038243,0.102111,0.515880,0.184445,0.032935,-0.036057,-0.998807,0.041268,-0.005676,0.126340,-9.461760,-14.914657,-44.690197,,,,,,,5
1508446561.523637,0.046378,0.036811,-0.033820,-0.028009,0.741381,0.246361,0.046330,-0.036802,-0.998248,0.062145,-0.124956,0.031939,-8.881612,-14.948131,-44.797947,,,,,,,5
1508446561.543625,0.060914,0.034799,-0.027957,-0.160134,0.710867,0.310197,0.060839,-0.034792,-0.997541,0.064512,-0.132032,0.034299,-8.437076,-14.869328,-44.909958,,,,,,,5
1508446561.563655,0.073382,0.031300,-0.020761,-0.212344,0.586801,0.367168,0.073281,-0.031295,-0.996820,0.110664,-0.091371,0.051325,-7.905681,-14.666582,-45.073021,,,,,,,5
1508446561.583667,0.082312,0.027754,-0.012584,-0.201649,0.364895,0.403290,0.082187,-0.027751,-0.996230,0.144192,-0.022130,-0.005128,-7.590509,-14.481573,-45.186878,,,,,,,5
1508446561.603669,0.085891,0.025589,-0.004314,-0.091829,0.092849,0.394408,0.085758,-0.025586,-0.995987,0.078473,0.057065,-0.027435,-7.320185,-14.142933,-45.338486,,,,,,,5
1508446561.623686,0.085405,0.026614,0.002789,0.084042,-0.066809,0.332919,0.085271,-0.026611,-0.996002,0.078960,0.058090,-0.027420,-7.369841,-14.069608,-45.353249,,,,,,,5
1508446561.643697,0.083718,0.029618,0.008731,0.120299,-0.053143,0.297028,0.083584,-0.029614,-0.996061,0.070255,-0.086200,-0.005297,-7.483167,-14.087416,-45.329155,,,,,,,5
1508446561.663706,0.085203,0.030568,0.014252,-0.042672,0.184897,0.275721,0.085060,-0.030564,-0.995907,0.054283,-0.106155,-0.023991,-7.623975,-14.139625,-45.289421,,,,,,,5
1508446561.683716,0.090557,0.028788,0.020730,-0.140806,0.281880,0.349516,0.090396,-0.028784,-0.995490,0.029569,-0.062494,-0.000146,-7.522069,-14.052861,-45.333447,,,,,,,5
1508446561.703729,0.093646,0.026823,0.029131,-0.124886,0.075026,0.437865,0.093475,-0.026819,-0.995260,0.029358,0.072321,0.021109,-7.387955,-13.825899,-45.425194,,,,,,,5
1508446561.723737,0.091306,0.026155,0.038204,-0.032106,-0.208674,0.435222,0.091148,-0.026152,-0.995494,0.078316,0.248243,0.010158,-7.542398,-13.669483,-45.447147,,,,,,,5
1508446561.743742,0.084111,0.028331,0.045331,0.146029,-0.426974,0.313017,0.083978,-0.028327,-0.996065,0.091193,0.264579,-0.020262,-7.708961,-13.631997,-45.430454,,,,,,,5
1508446561.763737,0.072752,0.033411,0.050032,0.269791,-0.637672,0.229765,0.072647,-0.033405,-0.996798,-0.005447,0.118381,-0.081266,-8.454486,-13.777853,-45.253483,,,,,,,5
1508446561.783767,0.059231,0.039193,0.053870,0.268784,-0.652645,0.200997,0.059151,-0.039183,-0.997480,-0.052681,0.069044,-0.057650,-8.949419,-13.936010,-45.109653,,,,,,,5
1508446561.803770,0.048116,0.044132,0.057200,0.214458,-0.465785,0.161294,0.048050,-0.044118,-0.997870,-0.115845,0.009542,0.032416,-9.573976,-14.135534,-44.918941,,,,,,,5
1508446561.823787,0.042108,0.047430,0.059441,0.124998,-0.186548,0.095867,0.042049,-0.047412,-0.997990,-0.162211,0.013827,0.093510,-10.070618,-14.315699,-44.752979,,,,,,,5
1508446561.843797,0.041809,0.049308,0.060722,0.077015,0.094853,0.055224,0.041746,-0.049288,-0.997912,-0.171308,0.012957,0.090700,-10.166913,-14.376497,-44.711697,,,,,,,5
1508446561.863805,0.047492,0.050853,0.061299,0.078005,0.392158,0.012867,0.047412,-0.050832,-0.997581,-0.163181,-0.000774,0.085136,-10.060974,-14.435691,-44.716587,,,,,,,5
1508446561.883817,0.058052,0.052466,0.060221,0.081273,0.596833,-0.088102,0.057939,-0.052441,-0.996942,-0.090212,-0.025622,0.041055,-9.558638,-14.529844,-44.796223,,,,,,,5
1508446561.903810,0.072539,0.053681,0.057234,0.066416,0.788833,-0.171129,0.072371,-0.053655,-0.995933,-0.076293,-0.013849,-0.008080,-8.922922,-14.619223,-44.898167,,,,,,,5
1508446561.923836,0.090001,0.054760,0.053387,0.071727,0.882249,-0.190180,0.089745,-0.054733,-0.994460,-0.074822,-0.022889,-0.023668,-8.533298,-14.664672,-44.959049,,,,,,,5
1508446561.943847,0.107154,0.055720,0.049643,0.055772,0.808997,-0.178655,0.106783,-0.055691,-0.992721,-0.020098,-0.118595,-0.047104,-7.279934,-14.803071,-45.133766,,,,,,,5
1508446561.963856,0.121368,0.056024,0.045957,0.024996,0.628393,-0.185434,0.120880,-0.055995,-0.991087,0.036529,-0.198003,-0.017397,-6.553019,-14.867454,-45.223911,,,,,,,5
1508446561.983867,0.131825,0.055509,0.042159,-0.021751,0.449922,-0.192344,0.131241,-0.055480,-0.989797,0.026168,-0.198517,-0.018687,-6.117603,-14.896099,-45.275455,,,,,,,5
1508446562.003877,0.139675,0.053911,0.038466,-0.072802,0.350102,-0.195992,0.139019,-0.053884,-0.988823,0.090137,-0.187250,0.005745,-5.767085,-14.898928,-45.320503,,,,,,,5
1508446562.023886,0.146133,0.051134,0.034624,-0.136619,0.295878,-0.218919,0.145423,-0.051112,-0.988048,0.117242,-0.095754,-0.000904,-5.209095,-14.821558,-45.413353,,,,,,,5
1508446562.043896,0.151551,0.046947,0.030661,-0.194064,0.234250,-0.231152,0.150805,-0.046930,-0.987449,0.104673,-0.056098,-0.009774,-4.966256,-14.732296,-45.469566,,,,,,,5
1508446562.063903,0.154815,0.042552,0.026451,-0.170544,0.102450,-0.248093,0.154058,-0.042539,-0.987146,0.058406,0.084211,-0.019644,-4.652236,-14.544449,-45.563156,,,,,,,5
1508446562.083917,0.155991,0.039099,0.021770,-0.109786,0.026934,-0.264685,0.155241,-0.039089,-0.987103,0.046374,0.124553,-0.017459,-4.544165,-14.454373,-45.602715,,,,,,,5
1508446562.103922,0.155899,0.037239,0.016535,-0.012836,-0.054951,-0.274594,0.155161,-0.037230,-0.987188,0.052512,0.168730,-0.017543,-4.448318,-14.389787,-45.632576,,,,,,,5
1508446562.123936,0.152349,0.037471,0.011138,0.087332,-0.273790,-0.259026,0.151653,-0.037462,-0.987724,0.090610,0.111712,0.003013,-4.477158,-14.435967,-45.615170,,,,,,,5
1508446562.143947,0.145684,0.038891,0.005586,0.116138,-0.351392,-0.269494,0.145060,-0.038881,-0.988659,0.079229,0.076372,0.026180,-4.634968,-14.522448,-45.571934,,,,,,,5
1508446562.163955,0.139924,0.040191,-0.000366,0.099108,-0.262247,-0.298316,0.139356,-0.040180,-0.989427,0.022906,0.016498,0.049577,-4.865060,-14.651497,-45.506599,,,,,,,5
1508446562.183967,0.136372,0.040880,-0.007081,0.069312,-0.143403,-0.342126,0.135836,-0.040868,-0.989888,-0.011462,-0.019236,0.027409,-5.016788,-14.793784,-45.444046,,,,,,,5
1508446562.203977,0.136307,0.041054,-0.014031,0.045761,0.064871,-0.329386,0.135770,-0.041042,-0.989890,-0.020322,-0.033527,0.012076,-4.977344,-14.884422,-45.418781,,,,,,,5
1508446562.223985,0.140229,0.040736,-0.019201,0.001792,0.250183,-0.202904,0.139654,-0.040725,-0.989363,-0.014791,-0.043717,0.003523,-4.888584,-14.918979,-45.417088,,,,,,,5
1508446562.243997,0.146273,0.039860,-0.021336,-0.045319,0.299552,-0.066969,0.145636,-0.039849,-0.988535,0.043359,-0.033545,-0.018331,-4.461421,-14.939281,-45.454365,,,,,,,5
1508446562.264009,0.150703,0.038548,-0.022067,-0.060188,0.146661,-0.044847,0.150021,-0.038539,-0.987931,0.105609,-0.010061,-0.019408,-4.211183,-14.893054,-45.493389,,,,,,,5
1508446562.284016,0.150420,0.037651,-0.023161,-0.016359,-0.124334,-0.067050,0.149747,-0.037642,-0.988008,0.130206,-0.001772,-0.015136,-4.141865,-14.860542,-45.510380,,,,,,,5
1508446562.303914,0.143919,0.037979,-0.024239,0.049764,-0.447212,-0.036936,0.143320,-0.037970,-0.988948,0.170950,0.002280,-0.032567,-4.354637,-14.866675,-45.488510,,,,,,,5
1508446562.323924,0.131091,0.039369,-0.024726,0.080743,-0.753075,-0.007098,0.130615,-0.039359,-0.990652,0.117798,-0.001992,0.002828,-4.862473,-14.927266,-45.417164,,,,,,,5
1508446562.343933,0.113660,0.041481,-0.025297,0.128766,-0.917817,-0.022798,0.113318,-0.041469,-0.992693,0.135095,0.000118,0.004869,-5.411703,-14.989289,-45.334538,,,,,,,5
1508446562.363944,0.096202,0.044501,-0.026095,0.158515,-0.809455,-0.017146,0.095958,-0.044487,-0.994391,-0.047741,0.009224,0.025030,-6.421394,-15.151758,-45.148373,,,,,,,5
1508446562.383931,0.084132,0.047046,-0.026094,0.096518,-0.474639,0.025185,0.083940,-0.047028,-0.995360,-0.163133,0.012223,0.044036,-7.041306,-15.279836,-45.012577,,,,,,,5
1508446562.403964,0.078308,0.047858,-0.025785,0.011225,-0.191009,0.008724,0.078139,-0.047840,-0.995794,-0.157332,0.013034,0.044470,-7.314689,-15.325692,-44.953358,,,,,,,5
1508446562.423974,0.077975,0.047468,-0.025491,-0.040022,0.082045,0.010637,0.077808,-0.047451,-0.995838,-0.084766,0.008281,0.048680,-7.444724,-15.332216,-44.929779,,,,,,,5
1508446562.443980,0.081807,0.046276,-0.025408,-0.063501,0.239234,-0.003280,0.081628,-0.046259,-0.995589,-0.016229,0.002039,0.041441,-7.365246,-15.287729,-44.958027,,,,,,,5
1508446562.463993,0.086924,0.045329,-0.025182,-0.034794,0.249914,0.017196,0.086725,-0.045314,-0.995201,0.003256,-0.002721,0.020744,-7.146303,-15.233571,-45.011711,,,,,,,5
1508446562.483991,0.090744,0.045167,-0.024316,-0.000741,0.149114,0.056796,0.090527,-0.045152,-0.994870,0.015537,0.015947,-0.020709,-6.902422,-15.200297,-45.060993,,,,,,,5
1508446562.504014,0.091580,0.045637,-0.022884,0.030182,-0.023980,0.080345,0.091357,-0.045621,-0.994773,0.019101,0.024625,-0.025811,-6.842565,-15.197021,-45.071228,,,,,,,5
1508446562.523998,0.088662,0.046908,-0.021290,0.070723,-0.208824,0.086928,0.088449,-0.046890,-0.994976,0.027625,0.025391,-0.026996,-6.911147,-15.218377,-45.053555,,,,,,,5
1508446562.544019,0.082731,0.048804,-0.019741,0.093150,-0.332077,0.083826,0.082538,-0.048785,-0.995393,0.023587,-0.009595,-0.002700,-7.217301,-15.291037,-44.980892,,,,,,,5
1508446562.564044,0.075620,0.050479,-0.018369,0.060177,-0.348047,0.068635,0.075451,-0.050457,-0.995872,0.021595,-0.030674,0.004829,-7.468668,-15.342849,-44.922173,,,,,,,5
1508446562.584053,0.069575,0.050664,-0.017222,-0.031405,-0.258825,0.050911,0.069430,-0.050642,-0.996301,0.008848,-0.075548,0.021371,-7.793164,-15.376442,-44.855515,,,,,,,5
1508446562.604064,0.065840,0.048937,-0.016225,-0.116624,-0.139837,0.039650,0.065714,-0.048917,-0.996639,-0.007685,-0.046282,0.022777,-8.068396,-15.303913,-44.831654,,,,,,,5
1508446562.624073,0.064216,0.046404,-0.015437,-0.125163,-0.046399,0.024744,0.064103,-0.046387,-0.996865,-0.022034,0.003312,0.018318,-8.171122,-15.184538,-44.853630,,,,,,,5
1508446562.644083,0.064071,0.044336,-0.015044,-0.086834,0.015137,0.008071,0.063964,-0.044322,-0.996967,-0.031188,0.016291,0.018238,-8.191409,-15.128034,-44.869022,,,,,,,5
1508446562.664094,0.064965,0.043403,-0.014836,-0.020844,0.061848,0.008651,0.064858,-0.043390,-0.996951,-0.034371,0.041086,0.008914,-8.167942,-15.021021,-44.909237,,,,,,,5
1508446562.684091,0.066623,0.043749,-0.014743,0.034519,0.091543,0.002742,0.066510,-0.043735,-0.996827,-0.018582,0.015400,0.001191,-8.102146,-15.022633,-44.920609,,,,,,,5
1508446562.704114,0.068408,0.044639,-0.014912,0.044127,0.085120,-0.009961,0.068286,-0.044624,-0.996667,-0.007724,0.003013,-0.001670,-8.040039,-15.050303,-44.922512,,,,,,,5
1508446562.724124,0.069755,0.045157,-0.015274,0.014345,0.053235,-0.018749,0.069627,-0.045142,-0.996551,0.026808,-0.021020,-0.006043,-7.948977,-15.094506,-44.923882,,,,,,,5
1508446562.744120,0.070189,0.045068,-0.015786,-0.012231,-0.000960,-0.027527,0.070060,-0.045053,-0.996525,0.033364,-0.021689,-0.007534,-7.916382,-15.102061,-44.927101,,,,,,,5
1508446562.764143,0.069520,0.044586,-0.016200,-0.027128,-0.054036,-0.018107,0.069395,-0.044571,-0.996593,0.030657,-0.016663,-0.009770,-7.914970,-15.093346,-44.930279,,,,,,,5
1508446562.784155,0.067988,0.044005,-0.016338,-0.029265,-0.086918,-0.004308,0.067870,-0.043991,-0.996724,0.008851,0.000336,-0.007030,-7.946668,-15.077645,-44.929955,,,,,,,5
1508446562.804163,0.065076,0.042719,-0.016277,-0.028206,-0.086914,-0.002170,0.064971,-0.042706,-0.996973,-0.011122,0.007001,0.006327,-8.060163,-15.039130,-44.922646,,,,,,,5
1508446562.824174,0.063650,0.042274,-0.016402,-0.014361,-0.060396,-0.011618,0.063550,-0.042261,-0.997083,-0.015500,0.010340,0.010221,-8.165021,-14.990006,-44.920128,,,,,,,5
1508446562.844160,0.060045,0.041939,-0.016625,0.004800,-0.029627,-0.017825,0.059956,-0.041927,-0.997320,-0.029881,0.003429,0.008779,-8.220110,-14.982557,-44.912567,,,,,,,5
1508446562.864194,0.059927,0.042178,-0.016921,0.014350,0.008639,-0.010264,0.059838,-0.042165,-0.997317,-0.032662,0.001867,0.003741,-8.356052,-14.977236,-44.889248,,,,,,,5
1508446562.884193,0.060754,0.042452,-0.017041,0.014309,0.060723,-0.001707,0.060662,-0.042439,-0.997256,-0.028908,-0.000728,0.006396,-8.347132,-14.988233,-44.887238,,,,,,,5
1508446562.904188,0.062595,0.042677,-0.017004,0.008947,0.111745,0.005741,0.062497,-0.042664,-0.997133,-0.004926,-0.004776,0.003496,-8.256832,-15.005935,-44.898022,,,,,,,5
1508446562.924224,0.065318,0.042717,-0.016844,-0.004917,0.148941,0.007784,0.065212,-0.042704,-0.996957,0.001789,-0.006018,0.004968,-8.175982,-15.009402,-44.911655,,,,,,,5
1508446562.944235,0.070078,0.042569,-0.016807,-0.015555,0.153178,0.001311,0.069958,-0.042556,-0.996642,0.015629,-0.001161,0.002684,-7.967773,-15.007499,-44.949696,,,,,,,5
1508446562.964246,0.076892,0.042201,-0.017000,-0.010207,0.118150,-0.003936,0.076748,-0.042189,-0.996158,0.024998,0.000792,0.001269,-7.707452,-14.990890,-45.000603,,,,,,,5
1508446562.984254,0.078448,0.042174,-0.016985,0.004717,0.052307,0.004656,0.078298,-0.042162,-0.996038,0.030833,0.000063,-0.002909,-7.545677,-14.984061,-45.030281,,,,,,,5
1508446563.004264,0.078522,0.042423,-0.016729,0.014315,-0.022016,0.017456,0.078371,-0.042410,-0.996022,0.039213,-0.000284,-0.002361,-7.510388,-14.988731,-45.034630,,,,,,,5
1508446563.024276,0.077384,0.042647,-0.016301,0.007941,-0.074044,0.023752,0.077236,-0.042635,-0.996101,0.045399,-0.000380,-0.000924,-7.528789,-14.995436,-45.029324,,,,,,,5
1508446563.044261,0.075553,0.042710,-0.015825,-0.001630,-0.094227,0.022593,0.075412,-0.042697,-0.996238,0.030835,0.000796,0.005378,-7.642143,-14.997413,-45.009567,,,,,,,5
1508446563.064295,0.073778,0.042648,-0.015431,-0.003755,-0.080438,0.016198,0.073644,-0.042635,-0.996373,0.019328,0.001955,0.009190,-7.687717,-14.994468,-45.002785,,,,,,,5
1508446563.084307,0.072510,0.042695,-0.015215,0.004763,-0.050726,0.007773,0.072380,-0.042682,-0.996463,-0.010384,0.008304,0.011081,-7.797900,-14.988034,-44.985966,,,,,,,5
1508446563.104314,0.070949,0.042551,-0.015076,0.015399,-0.026303,0.006814,0.070825,-0.042538,-0.996581,-0.001626,0.001477,0.004867,-7.870530,-14.981740,-44.975414,,,,,,,5
1508446563.124325,0.070494,0.043002,-0.014879,0.023904,-0.023098,0.013275,0.070371,-0.042989,-0.996594,-0.001172,0.001927,0.004880,-7.893260,-14.989129,-44.968967,,,,,,,5
1508446563.144336,0.072195,0.044312,-0.014682,0.010058,-0.025195,0.017418,0.072061,-0.044298,-0.996416,0.020331,-0.007948,-0.003599,-7.886475,-15.029049,-44.956833,,,,,,,5
1508446563.164347,0.072993,0.044526,-0.014482,-0.005898,-0.030518,0.010894,0.072856,-0.044511,-0.996349,0.018132,0.000627,-0.001729,-7.792027,-15.063527,-44.961761,,,,,,,5
1508446563.184354,0.072631,0.044198,-0.014491,-0.005862,-0.047570,-0.005090,0.072496,-0.044183,-0.996390,0.007659,0.002863,0.001517,-7.807714,-15.059755,-44.960304,,,,,,,5
1508446563.204366,0.071599,0.043856,-0.014738,0.002674,-0.056102,-0.013544,0.071469,-0.043842,-0.996479,0.001194,0.002750,0.005573,-7.827453,-15.040097,-44.963451,,,,,,,5
1508446563.224375,0.071809,0.043869,-0.015046,0.015450,-0.073083,-0.008128,0.071678,-0.043855,-0.996463,0.013222,0.000642,-0.000805,-7.857015,-15.036209,-44.959599,,,,,,,5
1508446563.244385,0.070780,0.044227,-0.015095,0.011180,-0.087914,0.002473,0.070652,-0.044213,-0.996521,0.014675,-0.000923,0.003830,-7.880983,-15.046775,-44.951866,,,,,,,5
1508446563.264398,0.069260,0.044176,-0.015057,-0.001596,-0.086848,0.001304,0.069137,-0.044162,-0.996629,-0.008453,0.001605,0.006853,-7.924120,-15.055592,-44.941330,,,,,,,5
1508446563.284406,0.067018,0.044119,-0.015074,0.001599,-0.069873,-0.003980,0.066903,-0.044104,-0.996784,-0.017205,0.001700,0.010288,-7.996074,-15.052266,-44.929695,,,,,,,5
1508446563.304392,0.064967,0.044147,-0.015054,0.006902,-0.045429,0.000341,0.064858,-0.044133,-0.996918,-0.026742,0.000828,0.006745,-8.074191,-15.050950,-44.916168,,,,,,,5
1508446563.324412,0.063077,0.044216,-0.014915,0.004751,-0.025224,0.006727,0.062974,-0.044201,-0.997036,-0.003297,0.001019,0.001842,-8.212410,-15.053495,-44.890247,,,,,,,5
1508446563.344435,0.062665,0.044184,-0.014727,-0.000585,-0.015645,0.010949,0.062563,-0.044170,-0.997063,0.000563,0.000575,-0.000495,-8.256527,-15.050876,-44.883030,,,,,,,5
1508446563.364440,0.062258,0.044092,-0.014513,-0.005906,-0.009280,0.007716,0.062158,-0.044078,-0.997093,-0.004785,0.001002,0.001411,-8.263971,-15.048770,-44.882370,,,,,,,5
1508446563.384457,0.061805,0.043901,-0.014441,-0.002703,0.001311,-0.000768,0.061707,-0.043887,-0.997129,-0.006989,0.001758,0.002607,-8.292306,-15.036674,-44.881195,,,,,,,5
1508446563.404465,0.061683,0.043935,-0.014464,0.006880,0.001306,-0.000689,0.061585,-0.043921,-0.997135,-0.004975,0.001501,0.002476,-8.301129,-15.034483,-44.880299,,,,,,,5
1508446563.424476,0.061795,0.044099,-0.014446,0.004744,0.003444,0.002490,0.061695,-0.044085,-0.997121,0.001034,-0.000456,0.001088,-8.304012,-15.040039,-44.877903,,,,,,,5
1508446563.444487,0.062325,0.044183,-0.014377,-0.003778,0.008765,0.003488,0.062224,-0.044169,-0.997084,0.008515,0.000270,0.006545,-8.294755,-15.046334,-44.877506,,,,,,,5
1508446563.464488,0.062795,0.044059,-0.014282,-0.006977,0.014083,0.004530,0.062693,-0.044045,-0.997060,0.005849,0.001061,0.005682,-8.274756,-15.042661,-44.882431,,,,,,,5
1508446563.484506,0.063259,0.043882,-0.014269,-0.005906,0.016232,-0.001788,0.063156,-0.043868,-0.997039,0.004136,0.001921,0.006210,-8.246541,-15.033497,-44.890690,,,,,,,5
1508446563.504517,0.063509,0.043708,-0.014327,0.001549,0.015162,-0.002792,0.063405,-0.043694,-0.997031,-0.003255,0.002449,0.003409,-8.226538,-15.026535,-44.896690,,,,,,,5
1508446563.524512,0.063612,0.043800,-0.014262,0.010051,0.012005,0.006859,0.063508,-0.043786,-0.997020,-0.001725,0.001580,-0.001301,-8.225470,-15.025224,-44.897327,,,,,,,5
1508446563.544535,0.063759,0.043940,-0.014061,0.006854,0.006706,0.010023,0.063654,-0.043926,-0.997005,0.001089,0.000042,0.001445,-8.221824,-15.029041,-44.896717,,,,,,,5
1508446563.564547,0.064154,0.043971,-0.013915,0.001536,0.006698,0.006785,0.064048,-0.043957,-0.996978,0.004693,0.001065,0.001052,-8.212854,-15.031122,-44.897659,,,,,,,5
1508446563.584555,0.064741,0.043829,-0.013846,0.000479,0.004561,0.002515,0.064634,-0.043815,-0.996947,0.005511,0.000908,0.003630,-8.186164,-15.024761,-44.904667,,,,,,,5
1508446563.604562,0.064913,0.043815,-0.013858,0.002617,-0.001825,-0.000666,0.064805,-0.043801,-0.996936,0.005309,0.001840,0.004688,-8.176999,-15.023856,-44.906635,,,,,,,5
1508446563.624555,0.064749,0.043825,-0.013815,0.002610,-0.006055,0.004654,0.064642,-0.043810,-0.996946,-0.002111,0.000216,0.002592,-8.174031,-15.023073,-44.907440,,,,,,,5
1508446563.644586,0.064619,0.043817,-0.013675,-0.000595,0.004581,0.007830,0.064512,-0.043803,-0.996955,-0.001783,0.000239,0.001960,-8.184285,-15.022112,-44.905891,,,,,,,5
1508446563.664588,0.064893,0.043842,-0.013509,0.003653,0.022642,0.008944,0.064785,-0.043828,-0.996936,-0.000866,0.000982,0.002063,-8.184578,-15.021016,-44.906208,,,,,,,5
1508446563.684581,0.065719,0.044012,-0.013390,0.017488,0.037506,0.008004,0.065608,-0.043998,-0.996875,0.014561,0.001670,-0.004041,-8.153924,-15.025088,-44.910423,,,,,,,5
1508446563.704617,0.067066,0.044594,-0.013182,0.041954,0.050276,0.017799,0.066949,-0.044580,-0.996760,0.018134,0.002038,-0.006872,-8.123075,-15.037046,-44.912006,,,,,,,5
1508446563.724625,0.068861,0.045833,-0.012716,0.075985,0.070505,0.035131,0.068734,-0.045817,-0.996582,0.027900,-0.002294,-0.012313,-8.035718,-15.070505,-44.916508,,,,,,,5
1508446563.744636,0.072612,0.049370,-0.012049,0.118550,0.075855,0.050393,0.072460,-0.049350,-0.996150,0.030842,-0.029248,-0.018285,-7.898424,-15.193898,-44.899288,,,,,,,5
1508446563.764648,0.074282,0.053154,-0.011358,0.133488,0.048199,0.041978,0.074109,-0.053129,-0.995834,0.023837,-0.041430,-0.006302,-7.832360,-15.305298,-44.873020,,,,,,,5
1508446563.784657,0.075985,0.055038,-0.010978,0.058966,0.126753,0.013739,0.075797,-0.055010,-0.995605,0.037561,-0.058317,0.008819,-7.769626,-15.457074,-44.831879,,,,,,,5
1508446563.804667,0.079672,0.055257,-0.011153,-0.009152,0.199965,-0.021905,0.079466,-0.055229,-0.995306,0.023591,0.000358,-0.039865,-7.602010,-15.500388,-44.845657,,,,,,,5
1508446563.824656,0.082581,0.054498,-0.011976,-0.009043,0.084067,-0.051805,0.082364,-0.054471,-0.995113,-0.010373,0.011334,-0.046742,-7.470895,-15.492749,-44.870327,,,,,,,5
1508446563.844687,0.082259,0.055316,-0.013148,0.084735,-0.067905,-0.054340,0.082041,-0.055288,-0.995094,-0.019678,0.007635,-0.038811,-7.397639,-15.487731,-44.884197,,,,,,,5
1508446563.864698,0.080763,0.057936,-0.014398,0.156061,-0.067918,-0.047362,0.080540,-0.057904,-0.995068,-0.022969,-0.080524,-0.012439,-7.456282,-15.616420,-44.829868,,,,,,,5
1508446563.884684,0.079797,0.063919,-0.015427,0.168795,0.004343,-0.038683,0.079549,-0.063875,-0.994782,-0.046178,-0.122297,-0.027984,-7.509346,-15.888685,-44.725216,,,,,,,5
1508446563.904716,0.080633,0.067164,-0.017082,0.166749,0.045566,-0.098295,0.080364,-0.067114,-0.994504,-0.066646,-0.130106,-0.029163,-7.484706,-16.007236,-44.687057,,,,,,,5
1508446563.924728,0.081367,0.069924,-0.020342,0.140280,0.015566,-0.175198,0.081078,-0.069867,-0.994256,-0.088753,-0.180789,-0.049094,-7.432262,-16.129339,-44.651894,,,,,,,5
1508446563.944737,0.081468,0.072024,-0.024285,0.109455,-0.036525,-0.190398,0.081167,-0.071961,-0.994099,-0.083410,-0.276885,0.037999,-7.333209,-16.349424,-44.588184,,,,,,,5
1508446563.964745,0.079868,0.073016,-0.028570,0.025455,-0.121611,-0.231616,0.079571,-0.072951,-0.994156,-0.071133,-0.270677,0.108582,-7.323799,-16.409904,-44.567505,,,,,,,5
1508446563.984754,0.077653,0.070406,-0.034519,-0.204326,-0.142020,-0.347396,0.077383,-0.070348,-0.994516,-0.038992,-0.180186,0.236796,-7.356156,-16.453518,-44.546093,,,,,,,5
1508446564.004767,0.074984,0.062405,-0.041489,-0.464048,-0.151585,-0.387877,0.074768,-0.062365,-0.995249,-0.032883,-0.107359,0.268244,-7.368547,-16.310085,-44.596760,,,,,,,5
1508446564.024764,0.073838,0.050457,-0.048828,-0.613103,-0.022051,-0.430535,0.073677,-0.050435,-0.996006,0.025032,0.058721,0.216846,-7.364004,-15.933801,-44.733334,,,,,,,5
1508446564.044782,0.072532,0.036793,-0.057066,-0.666188,-0.192117,-0.470481,0.072419,-0.036785,-0.996696,0.133834,0.335720,-0.031945,-7.240734,-15.310452,-44.970516,,,,,,,5
1508446564.064797,0.063281,0.023216,-0.065055,-0.623471,-0.632821,-0.417224,0.063222,-0.023214,-0.997729,0.154628,0.416357,-0.053693,-7.342299,-14.912201,-45.087719,,,,,,,5
1508446564.084807,0.049082,0.013123,-0.071621,-0.365926,-0.716550,-0.322529,0.049058,-0.013123,-0.998710,0.127654,0.549378,-0.035790,-7.809073,-14.434100,-45.164818,,,,,,,5
1508446564.104818,0.036677,0.010899,-0.076988,0.057617,-0.526353,-0.247551,0.036667,-0.010898,-0.999268,-0.053513,0.504444,-0.073348,-8.470612,-14.206385,-45.117771,,,,,,,5
1508446564.124827,0.031698,0.015475,-0.081433,0.311776,-0.074817,-0.196133,0.031689,-0.015474,-0.999378,-0.051525,0.435854,-0.090405,-8.706431,-14.330945,-45.033405,,,,,,,5
1508446564.144837,0.033899,0.022459,-0.084698,0.361554,0.178270,-0.116740,0.033884,-0.022458,-0.999173,0.071463,0.253384,-0.119372,-8.687140,-14.651212,-44.933964,,,,,,,5
1508446564.164848,0.038401,0.029085,-0.085973,0.304922,0.225396,-0.016021,0.038375,-0.029081,-0.998840,0.270341,-0.004458,-0.027512,-8.432347,-15.063486,-44.846100,,,,,,,5
1508446564.184851,0.040262,0.033557,-0.085644,0.163335,-0.030343,0.043307,0.040229,-0.033551,-0.998627,0.325830,-0.107883,0.022110,-8.294262,-15.293188,-44.794075,,,,,,,5
1508446564.204868,0.033283,0.034512,-0.084807,-0.021654,-0.546575,0.032872,0.033257,-0.034505,-0.998851,0.320991,-0.141688,0.000209,-8.341821,-15.352031,-44.765106,,,,,,,5
1508446564.224879,0.015814,0.033229,-0.084405,-0.058655,-1.058575,0.022630,0.015805,-0.033223,-0.999323,0.085666,-0.197658,-0.104940,-9.175776,-15.315031,-44.614353,,,,,,,5
1508446564.244883,-0.009897,0.034161,-0.082957,0.125551,-1.373878,0.110156,-0.009891,-0.034154,-0.999368,-0.080045,-0.207560,0.049722,-10.263011,-15.305523,-44.380142,,,,,,,5
1508446564.264897,-0.036764,0.038426,-0.079331,0.240353,-1.271675,0.189972,-0.036729,-0.038417,-0.998587,-0.096008,-0.155385,0.066214,-11.208683,-15.397114,-44.118927,,,,,,,5
1508446564.284910,-0.059199,0.041990,-0.076530,0.133934,-1.029760,0.089191,-0.059112,-0.041978,-0.997368,-0.184082,-0.075332,0.094811,-12.088569,-15.519902,-43.842728,,,,,,,5
1508446564.304911,-0.077004,0.042990,-0.075802,0.009376,-0.783515,0.008493,-0.076857,-0.042977,-0.996115,-0.275743,0.003609,0.112799,-13.440161,-15.644759,-43.402641,,,,,,,5
1508446564.324928,-0.088271,0.042420,-0.075779,-0.042985,-0.428646,0.014717,-0.088077,-0.042408,-0.995211,-0.245953,0.013111,0.113741,-13.762591,-15.643953,-43.301769,,,,,,,5
1508446564.344921,-0.093261,0.041129,-0.074825,-0.068765,-0.157555,0.066882,-0.093047,-0.041117,-0.994812,-0.164049,0.038035,0.071503,-14.290560,-15.573456,-43.155914,,,,,,,5
1508446564.364948,-0.094121,0.039532,-0.073689,-0.073100,0.027260,0.057403,-0.093909,-0.039522,-0.994796,-0.143961,0.037340,0.052993,-14.377620,-15.512298,-43.149025,,,,,,,5
1508446564.384956,-0.091175,0.038350,-0.073160,-0.039046,0.218307,0.013110,-0.090982,-0.038341,-0.995114,-0.112219,0.028484,0.022366,-14.348203,-15.436470,-43.185997,,,,,,,5
1508446564.404968,-0.085324,0.038578,-0.073536,0.041919,0.315812,-0.040450,-0.085157,-0.038568,-0.995621,-0.050067,-0.006476,-0.040817,-14.079378,-15.415623,-43.281815,,,,,,,5
1508446564.424979,-0.079408,0.040185,-0.074966,0.087844,0.264566,-0.106124,-0.079261,-0.040174,-0.996044,-0.031976,-0.011737,-0.057850,-13.864693,-15.463847,-43.333881,,,,,,,5
1508446564.444988,-0.074976,0.042595,-0.077732,0.114580,0.193212,-0.152806,-0.074838,-0.042582,-0.996286,-0.000220,-0.064153,-0.045920,-13.608089,-15.577486,-43.374504,,,,,,,5
1508446564.464998,-0.072159,0.044185,-0.080076,0.052761,0.066020,-0.079945,-0.072026,-0.044170,-0.996424,0.074361,-0.073185,-0.004644,-13.361137,-15.725895,-43.397717,,,,,,,5
1508446564.484989,-0.072569,0.045738,-0.079358,0.095118,-0.018439,0.076858,-0.072429,-0.045722,-0.996325,0.037914,-0.002831,0.031084,-13.356340,-15.788594,-43.376423,,,,,,,5
1508446564.505018,-0.072459,0.046867,-0.078749,0.016482,0.017377,-0.021720,-0.072316,-0.046849,-0.996281,-0.031825,-0.000163,0.017857,-13.372995,-15.819321,-43.360096,,,,,,,5
1508446564.525021,-0.071720,0.046191,-0.079889,-0.050558,0.049173,-0.053127,-0.071582,-0.046175,-0.996365,-0.152158,-0.018492,-0.013370,-13.336636,-15.836954,-43.364853,,,,,,,5
1508446564.545013,-0.069568,0.046006,-0.080529,0.022799,0.146990,-0.018376,-0.069439,-0.045990,-0.996526,-0.084675,0.007278,-0.013438,-13.253167,-15.821682,-43.396011,,,,,,,5
1508446564.565048,-0.065618,0.047339,-0.080388,0.080187,0.220405,0.022614,-0.065498,-0.047321,-0.996730,-0.034173,0.016758,-0.017751,-13.181564,-15.838727,-43.411598,,,,,,,5
1508446564.585047,-0.060898,0.048341,-0.079511,0.021582,0.251302,0.039189,-0.060789,-0.048322,-0.996980,0.032850,0.047727,0.043092,-12.906277,-15.918514,-43.465096,,,,,,,5
1508446564.605071,-0.054180,0.047522,-0.079192,-0.073203,0.405280,0.007646,-0.054093,-0.047504,-0.997405,0.031937,0.044040,0.047851,-12.655197,-15.897686,-43.546471,,,,,,,5
1508446564.625078,-0.043849,0.045171,-0.079340,-0.141406,0.562502,-0.003446,-0.043790,-0.045156,-0.998020,0.035718,0.033178,0.040546,-12.357525,-15.837217,-43.653862,,,,,,,5
1508446564.645067,-0.033708,0.042395,-0.079373,-0.117939,0.432931,0.009427,-0.033672,-0.042382,-0.998534,0.143108,0.046060,-0.017320,-11.767321,-15.682770,-43.872162,,,,,,,5
1508446564.665099,-0.029566,0.041897,-0.079056,0.046197,0.057886,0.022210,-0.029536,-0.041885,-0.998686,0.130427,0.034194,-0.036196,-11.506642,-15.622145,-43.962841,,,,,,,5
1508446564.685096,-0.033040,0.045218,-0.078102,0.225192,-0.289479,0.054303,-0.033001,-0.045203,-0.998433,0.098522,0.012686,-0.035228,-11.507227,-15.651169,-43.952366,,,,,,,5
1508446564.705108,-0.040937,0.049839,-0.076513,0.210304,-0.418982,0.080700,-0.040875,-0.049818,-0.997922,0.021694,-0.033281,-0.016422,-11.926570,-15.915137,-43.745296,,,,,,,5
1508446564.725130,-0.048743,0.052049,-0.074791,0.051630,-0.349862,0.076249,-0.048657,-0.052025,-0.997460,0.018552,-0.035118,0.004616,-12.215889,-16.014324,-43.629108,,,,,,,5
1508446564.745122,-0.054315,0.051759,-0.073531,-0.028252,-0.228783,0.056515,-0.054216,-0.051736,-0.997188,-0.003905,-0.014350,0.027492,-12.531776,-16.029325,-43.533905,,,,,,,5
1508446564.765151,-0.057428,0.051461,-0.072693,0.004738,-0.108841,0.032389,-0.057320,-0.051438,-0.997030,-0.026725,0.010407,0.024725,-12.768356,-15.989834,-43.479649,,,,,,,5
1508446564.785161,-0.058368,0.052143,-0.072516,0.047363,-0.014482,-0.015101,-0.058256,-0.052120,-0.996940,-0.025332,0.014354,0.020485,-12.828044,-15.996881,-43.459484,,,,,,,5
1508446564.805169,-0.057389,0.053024,-0.073981,0.037875,0.090400,-0.099215,-0.057277,-0.052999,-0.996951,-0.028614,0.016516,0.017336,-12.821852,-16.042658,-43.444435,,,,,,,5
1508446564.825181,-0.054046,0.053910,-0.076161,0.036777,0.209330,-0.114040,-0.053941,-0.053884,-0.997089,-0.048140,0.012075,0.014850,-12.652521,-16.117161,-43.466499,,,,,,,5
1508446564.845164,-0.048385,0.054282,-0.078320,-0.018640,0.314525,-0.115483,-0.048295,-0.054255,-0.997359,-0.022658,-0.007802,0.009642,-12.470721,-16.159492,-43.503304,,,,,,,5
1508446564.865199,-0.042395,0.054162,-0.079104,0.024784,0.253410,0.033894,-0.042320,-0.054136,-0.997636,-0.003227,-0.054110,-0.002119,-12.166804,-16.169203,-43.585678,,,,,,,5
1508446564.885211,-0.039138,0.054933,-0.077473,0.021573,0.140950,0.075307,-0.039069,-0.054905,-0.997727,0.020697,-0.067532,-0.012207,-11.954260,-16.190607,-43.636517,,,,,,,5
1508446564.905221,-0.036914,0.054060,-0.076503,-0.068855,0.079295,0.050025,-0.036852,-0.054034,-0.997859,0.015230,-0.023374,-0.003698,-11.859639,-16.160484,-43.673485,,,,,,,5
1508446564.925230,-0.036657,0.052467,-0.075155,-0.068855,-0.025772,0.079758,-0.036598,-0.052443,-0.997953,0.017662,0.008132,0.011320,-11.838929,-16.121807,-43.693394,,,,,,,5
1508446564.945241,-0.037132,0.049630,-0.073749,-0.001714,-0.097044,0.061093,-0.037078,-0.049610,-0.998080,0.020583,0.071476,0.022967,-11.870232,-15.922810,-43.757824,,,,,,,5
1508446564.965251,-0.038629,0.050518,-0.072770,0.070683,-0.056679,0.043662,-0.038570,-0.050497,-0.997979,-0.000477,0.019811,0.008645,-11.958838,-15.935130,-43.729206,,,,,,,5
1508446564.985261,-0.039442,0.051835,-0.071880,0.051506,-0.023748,0.040334,-0.039379,-0.051812,-0.997880,-0.003971,0.007851,0.008088,-12.001901,-15.976328,-43.702366,,,,,,,5
1508446565.005246,-0.039054,0.052260,-0.071112,0.012085,0.047430,0.034739,-0.038991,-0.052236,-0.997873,-0.005977,-0.017161,-0.006704,-12.022484,-16.007263,-43.685390,,,,,,,5
1508446565.025281,-0.038220,0.052583,-0.070450,0.023810,0.028295,0.032692,-0.038157,-0.052559,-0.997889,-0.003148,-0.017769,-0.019171,-11.990871,-16.012020,-43.692329,,,,,,,5
1508446565.045265,-0.038791,0.053258,-0.069624,0.037675,-0.055599,0.043390,-0.038727,-0.053232,-0.997831,-0.000275,-0.011831,-0.014605,-11.988873,-16.019943,-43.689976,,,,,,,5
1508446565.065291,-0.040337,0.053778,-0.068559,0.022752,-0.076782,0.059222,-0.040268,-0.053752,-0.997742,0.018616,-0.020223,0.001572,-12.083388,-16.047083,-43.653961,,,,,,,5
1508446565.085312,-0.040456,0.054797,-0.067194,0.003557,-0.078825,0.078227,-0.040384,-0.054770,-0.997682,0.022577,-0.012735,-0.001158,-12.172891,-16.043903,-43.630257,,,,,,,5
1508446565.105323,-0.041876,0.054732,-0.065692,-0.000699,-0.058664,0.070754,-0.041801,-0.054705,-0.997627,0.024589,-0.006010,-0.001106,-12.150614,-16.074883,-43.625065,,,,,,,5
1508446565.125332,-0.043029,0.054744,-0.064539,0.004661,-0.054495,0.048442,-0.042951,-0.054717,-0.997578,0.024061,0.006255,0.010822,-12.260750,-16.051445,-43.602875,,,,,,,5
1508446565.145342,-0.042631,0.054155,-0.064044,-0.013394,-0.038655,0.017427,-0.042556,-0.054128,-0.997627,0.021453,0.007650,0.013389,-12.305272,-16.045160,-43.592644,,,,,,,5
1508446565.165352,-0.042086,0.053069,-0.064069,-0.032543,0.002711,-0.005059,-0.042014,-0.053044,-0.997708,0.004096,0.010152,0.011426,-12.242496,-15.984352,-43.632641,,,,,,,5
1508446565.185363,-0.041845,0.051395,-0.064175,-0.022985,0.042016,-0.003886,-0.041777,-0.051373,-0.997805,-0.005449,0.009518,0.003207,-12.227530,-15.926971,-43.657810,,,,,,,5
1508446565.205363,-0.041033,0.050590,-0.064104,-0.012369,0.063293,0.006865,-0.040969,-0.050569,-0.997880,-0.003129,0.009095,0.005479,-12.209467,-15.890130,-43.676289,,,,,,,5
1508446565.225382,-0.040055,0.049760,-0.063954,-0.017686,0.053727,0.004684,-0.039995,-0.049740,-0.997961,-0.004240,0.009624,0.005880,-12.181408,-15.831752,-43.705318,,,,,,,5
1508446565.245393,-0.039334,0.048340,-0.064057,-0.008064,0.023922,-0.011230,-0.039278,-0.048321,-0.998059,0.000765,0.011624,0.001630,-12.133474,-15.787880,-43.734509,,,,,,,5
1508446565.265391,-0.039326,0.048174,-0.064468,0.023919,-0.008017,-0.025897,-0.039271,-0.048155,-0.998068,0.001307,0.007323,0.002371,-12.118130,-15.766131,-43.746609,,,,,,,5
1508446565.285412,-0.039080,0.048999,-0.064968,0.038827,-0.018638,-0.023652,-0.039024,-0.048979,-0.998037,0.009879,-0.004732,0.002127,-12.116481,-15.770597,-43.745453,,,,,,,5
1508446565.305402,-0.038260,0.050731,-0.065393,0.020714,-0.004796,-0.018467,-0.038201,-0.050709,-0.997983,0.012795,-0.014095,0.007336,-12.080114,-15.833290,-43.732864,,,,,,,5
1508446565.325433,-0.037485,0.051667,-0.065772,0.000477,0.009031,-0.017559,-0.037426,-0.051644,-0.997964,0.005260,-0.004097,0.007974,-12.031920,-15.917344,-43.715633,,,,,,,5
1508446565.345443,-0.037085,0.051565,-0.066156,0.000479,0.005844,-0.017562,-0.037027,-0.051542,-0.997984,0.004739,0.002149,0.005263,-12.011248,-15.927164,-43.717743,,,,,,,5
1508446565.365430,-0.036649,0.050997,-0.066389,0.016437,-0.015367,-0.005734,-0.036594,-0.050975,-0.998029,0.008136,0.008861,0.007062,-11.984249,-15.912347,-43.730549,,,,,,,5
1508446565.385447,-0.036387,0.050757,-0.066411,0.018553,-0.028076,0.004921,-0.036332,-0.050735,-0.998051,0.011658,0.009124,0.003102,-11.973708,-15.902094,-43.737164,,,,,,,5
1508446565.405464,-0.036710,0.050751,-0.066173,0.011085,-0.038657,0.015499,-0.036655,-0.050729,-0.998040,0.012439,0.009103,-0.002144,-11.970935,-15.896532,-43.739944,,,,,,,5
1508446565.425458,-0.037136,0.050307,-0.065827,0.002561,-0.040764,0.018621,-0.037080,-0.050286,-0.998046,-0.001128,0.007180,-0.006165,-11.999787,-15.879299,-43.738293,,,,,,,5
1508446565.445494,-0.038340,0.050182,-0.065468,0.004691,-0.035462,0.016513,-0.038282,-0.050161,-0.998007,-0.008303,0.000448,-0.002969,-12.041654,-15.858761,-43.734241,,,,,,,5
1508446565.465503,-0.039096,0.050435,-0.065185,0.011078,-0.021667,0.013382,-0.039036,-0.050414,-0.997965,-0.005657,-0.002473,0.004145,-12.070503,-15.858460,-43.726398,,,,,,,5
1508446565.485513,-0.039464,0.050827,-0.064932,0.007882,-0.008924,0.011236,-0.039403,-0.050805,-0.997931,0.007298,-0.002585,0.013922,-12.117388,-15.875332,-43.707302,,,,,,,5
1508446565.505524,-0.039401,0.050886,-0.064685,0.000427,-0.007853,0.012240,-0.039340,-0.050865,-0.997930,0.007999,-0.000237,0.010458,-12.123373,-15.881011,-43.703583,,,,,,,5
1508446565.525532,-0.039536,0.050842,-0.064413,0.001490,-0.013158,0.014374,-0.039474,-0.050820,-0.997927,0.003998,0.001946,0.009707,-12.120528,-15.877327,-43.705708,,,,,,,5
1508446565.545544,-0.040006,0.050740,-0.064140,0.012144,-0.019544,0.012328,-0.039944,-0.050718,-0.997914,-0.003574,0.004240,0.010350,-12.142079,-15.871516,-43.701836,,,,,,,5
1508446565.565531,-0.040441,0.050989,-0.063900,0.019601,-0.021680,0.010258,-0.040378,-0.050967,-0.997884,0.002978,0.001071,0.005971,-12.163550,-15.873693,-43.695072,,,,,,,5
1508446565.585563,-0.040748,0.051304,-0.063723,0.007892,-0.018494,0.008035,-0.040684,-0.051281,-0.997855,0.004276,-0.001850,0.003135,-12.180596,-15.885594,-43.685997,,,,,,,5
1508446565.605574,-0.040794,0.051197,-0.063633,-0.011274,-0.002563,0.003630,-0.040729,-0.051174,-0.997859,0.001621,0.001446,-0.001195,-12.194888,-15.888159,-43.681084,,,,,,,5
1508446565.625559,-0.040863,0.050776,-0.063647,-0.013397,0.001668,-0.001709,-0.040799,-0.050754,-0.997877,-0.004718,0.004627,0.001341,-12.193503,-15.877428,-43.685368,,,,,,,5
1508446565.645594,-0.040926,0.050448,-0.063695,-0.002746,0.000593,-0.003751,-0.040863,-0.050427,-0.997891,-0.004242,0.007016,0.002454,-12.200590,-15.852685,-43.692375,,,,,,,5
1508446565.665605,-0.040953,0.050082,-0.063737,0.003639,-0.002589,-0.001571,-0.040890,-0.050061,-0.997909,0.000927,0.007276,0.002700,-12.200356,-15.843238,-43.695866,,,,,,,5
1508446565.685618,-0.040965,0.049969,-0.063756,0.000447,-0.007899,-0.001602,-0.040902,-0.049948,-0.997914,0.007028,0.006659,0.008473,-12.202392,-15.837564,-43.697357,,,,,,,5
1508446565.705625,-0.040874,0.049662,-0.063778,-0.001687,-0.005768,-0.000553,-0.040813,-0.049642,-0.997933,0.004024,0.005926,0.009270,-12.197988,-15.824472,-43.703327,,,,,,,5
1508446565.725636,-0.040861,0.049367,-0.063729,-0.000630,-0.009998,0.004776,-0.040800,-0.049346,-0.997948,0.002546,0.005004,0.005272,-12.196529,-15.809681,-43.709087,,,,,,,5
1508446565.745645,-0.040958,0.049359,-0.063578,-0.001702,-0.014228,0.010088,-0.040897,-0.049339,-0.997944,0.003681,-0.000618,0.001042,-12.202839,-15.802073,-43.710075,,,,,,,5
1508446565.765657,-0.041140,0.049383,-0.063362,-0.001704,-0.014223,0.011153,-0.041078,-0.049363,-0.997936,0.005052,-0.002593,-0.001103,-12.206804,-15.800579,-43.709511,,,,,,,5
1508446565.785660,-0.041555,0.049399,-0.063159,0.002561,-0.014237,0.007994,-0.041493,-0.049379,-0.997918,-0.004452,0.000566,0.000344,-12.226068,-15.799835,-43.704399,,,,,,,5
1508446565.805674,-0.042145,0.049495,-0.063071,0.003637,-0.011077,0.000552,-0.042081,-0.049475,-0.997888,-0.007494,-0.001886,0.004175,-12.251076,-15.799773,-43.697414,,,,,,,5
1508446565.825660,-0.042421,0.049619,-0.063122,0.004706,-0.003657,-0.003693,-0.042356,-0.049599,-0.997871,-0.007098,-0.001014,0.007209,-12.263353,-15.803720,-43.692543,,,,,,,5
1508446565.845686,-0.042564,0.049794,-0.063164,0.000440,0.003789,-0.001593,-0.042498,-0.049774,-0.997856,-0.002774,-0.000382,0.006157,-12.276483,-15.813579,-43.685284,,,,,,,5
1508446565.865681,-0.042474,0.049680,-0.063202,-0.005952,0.009104,-0.001641,-0.042408,-0.049660,-0.997865,-0.001476,0.002693,0.007631,-12.275880,-15.816536,-43.684387,,,,,,,5
1508446565.885715,-0.042226,0.049411,-0.063246,-0.004889,0.011229,-0.001631,-0.042161,-0.049391,-0.997889,0.000810,0.006468,0.007258,-12.268165,-15.803038,-43.691441,,,,,,,5
1508446565.905727,-0.041999,0.048962,-0.063294,0.000439,0.004849,-0.002657,-0.041936,-0.048942,-0.997921,0.001760,0.006492,0.001995,-12.255323,-15.787530,-43.700645,,,,,,,5
1508446565.925737,-0.041878,0.048918,-0.063379,0.004703,0.000590,-0.004754,-0.041815,-0.048898,-0.997928,0.002906,0.005716,-0.001172,-12.250340,-15.783698,-43.703426,,,,,,,5
1508446565.945745,-0.041723,0.048905,-0.063430,0.004696,-0.001519,-0.000497,-0.041661,-0.048886,-0.997935,0.006597,0.004559,-0.005071,-12.238625,-15.778256,-43.708672,,,,,,,5
1508446565.965757,-0.041579,0.048865,-0.063408,0.003605,-0.000343,0.002730,-0.041517,-0.048845,-0.997943,0.003920,0.000429,0.003116,-12.236224,-15.777847,-43.709496,,,,,,,5
1508446565.985758,-0.041438,0.048885,-0.063363,0.000411,0.002843,0.001641,-0.041377,-0.048866,-0.997948,0.004328,0.001884,0.012078,-12.227524,-15.778706,-43.711624,,,,,,,5
1508446566.005776,-0.041301,0.048768,-0.063362,-0.003843,0.003897,-0.001588,-0.041240,-0.048749,-0.997959,0.002025,0.003140,0.012211,-12.226072,-15.778451,-43.712116,,,,,,,5
1508446566.025787,-0.041259,0.048595,-0.063367,-0.004915,0.006033,0.001600,-0.041198,-0.048576,-0.997969,-0.002533,0.001320,0.006209,-12.217581,-15.768225,-43.718185,,,,,,,5
1508446566.045797,-0.041187,0.048566,-0.063275,0.003597,0.002857,0.005926,-0.041127,-0.048547,-0.997974,-0.000133,0.001214,0.004749,-12.217604,-15.763253,-43.719971,,,,,,,5
1508446566.065806,-0.041222,0.048728,-0.063129,0.014246,-0.007764,0.008136,-0.041161,-0.048708,-0.997965,0.003579,0.002840,0.003626,-12.218452,-15.764800,-43.719173,,,,,,,5
1508446566.085818,-0.041148,0.049155,-0.062970,0.018497,-0.010910,0.008184,-0.041086,-0.049135,-0.997947,0.007090,-0.002455,0.004813,-12.217803,-15.772861,-43.716446,,,,,,,5
1508446566.105827,-0.041071,0.049586,-0.062867,0.006794,-0.011980,0.003827,-0.041009,-0.049566,-0.997929,0.001946,-0.002131,0.003620,-12.216159,-15.800845,-43.706799,,,,,,,5
1508446566.125831,-0.041307,0.049647,-0.062854,-0.002782,-0.010927,-0.000510,-0.041245,-0.049626,-0.997916,-0.000046,-0.001796,0.001731,-12.219801,-15.805407,-43.704132,,,,,,,5
1508446566.145826,-0.041588,0.049632,-0.062835,-0.002787,-0.007733,0.001622,-0.041524,-0.049612,-0.997905,-0.000712,0.001104,0.002238,-12.237603,-15.807906,-43.698246,,,,,,,5
1508446566.165858,-0.041757,0.049575,-0.062751,0.000399,-0.002412,0.004846,-0.041694,-0.049554,-0.997901,0.000129,0.001504,0.006766,-12.247754,-15.804123,-43.696774,,,,,,,5
1508446566.185861,-0.041773,0.049596,-0.062664,0.001467,-0.002419,0.002726,-0.041710,-0.049576,-0.997899,0.001473,0.001037,0.006261,-12.249606,-15.802504,-43.696838,,,,,,,5
1508446566.205878,-0.041851,0.049620,-0.062632,0.006796,-0.005616,0.000638,-0.041787,-0.049600,-0.997895,-0.000266,0.002618,0.003403,-12.253033,-15.805223,-43.694893,,,,,,,5
1508446566.225888,-0.042057,0.049668,-0.062623,0.006775,-0.012969,0.000646,-0.041993,-0.049648,-0.997884,0.000718,0.001384,0.001836,-12.261271,-15.805356,-43.692535,,,,,,,5
1508446566.245898,-0.042343,0.049757,-0.062599,0.002511,-0.010834,0.002742,-0.042278,-0.049736,-0.997867,-0.001820,0.000633,-0.002057,-12.266421,-15.807104,-43.690456,,,,,,,5
1508446566.265909,-0.042442,0.049821,-0.062536,0.001439,-0.000206,0.003806,-0.042377,-0.049801,-0.997860,0.000644,0.000103,0.009014,-12.281447,-15.811012,-43.684822,,,,,,,5
1508446566.285904,-0.042302,0.049611,-0.062490,-0.001754,0.008283,0.000592,-0.042238,-0.049591,-0.997876,-0.001097,0.005707,0.007749,-12.276546,-15.807255,-43.687557,,,,,,,5
1508446566.305929,-0.042174,0.049456,-0.062546,0.000385,0.006139,-0.004716,-0.042110,-0.049436,-0.997889,-0.001469,0.006268,0.006571,-12.274269,-15.801170,-43.690403,,,,,,,5
1508446566.325939,-0.042404,0.049353,-0.062618,0.013162,-0.000239,-0.003550,-0.042340,-0.049333,-0.997885,-0.008167,0.006090,0.006765,-12.270980,-15.794161,-43.693859,,,,,,,5
1508446566.345924,-0.042628,0.049637,-0.062622,0.021675,-0.005540,0.000775,-0.042562,-0.049616,-0.997861,-0.003367,0.005961,0.003629,-12.287330,-15.799488,-43.687332,,,,,,,5
1508446566.365959,-0.042714,0.050009,-0.062558,0.022733,-0.000221,0.002917,-0.042648,-0.049988,-0.997839,-0.000672,0.004456,0.004721,-12.289874,-15.809096,-43.683144,,,,,,,5
1508446566.385969,-0.042607,0.050359,-0.062483,0.019534,0.007217,0.002897,-0.042540,-0.050338,-0.997826,0.000548,0.001815,0.006432,-12.292301,-15.822336,-43.677666,,,,,,,5
1508446566.405955,-0.042333,0.050819,-0.062400,0.012041,0.019017,0.002852,-0.042266,-0.050797,-0.997814,-0.001618,-0.006912,0.004360,-12.281887,-15.851618,-43.669979,,,,,,,5
1508446566.425988,-0.041956,0.051225,-0.062324,0.007779,0.020089,0.004947,-0.041889,-0.051203,-0.997809,-0.001186,-0.009070,0.006019,-12.273947,-15.856361,-43.670490,,,,,,,5
1508446566.446000,-0.041351,0.051786,-0.062212,0.012038,0.017967,0.006045,-0.041284,-0.051763,-0.997806,0.005532,-0.005183,0.005801,-12.246145,-15.886724,-43.667259,,,,,,,5
1508446566.466010,-0.040872,0.051972,-0.062099,0.014172,0.008406,0.006055,-0.040805,-0.051949,-0.997816,0.010501,0.002816,0.001478,-12.218830,-15.899128,-43.670395,,,,,,,5
1508446566.486019,-0.040645,0.052125,-0.062057,0.015253,-0.003301,-0.000333,-0.040578,-0.052101,-0.997817,0.008199,0.004982,-0.000855,-12.216646,-15.904245,-43.669144,,,,,,,5
1508446566.506031,-0.041205,0.052207,-0.062043,0.019519,-0.014994,-0.001371,-0.041137,-0.052183,-0.997790,-0.008912,0.005644,-0.000654,-12.214987,-15.905248,-43.669243,,,,,,,5
1508446566.526040,-0.041872,0.052654,-0.062022,0.023772,-0.007557,-0.000266,-0.041801,-0.052630,-0.997739,-0.005608,-0.001035,0.004605,-12.254004,-15.924581,-43.651264,,,,,,,5
1508446566.546052,-0.041875,0.053025,-0.062021,0.014187,0.005189,-0.002465,-0.041804,-0.053001,-0.997719,-0.001562,0.000617,0.008248,-12.262261,-15.935589,-43.644928,,,,,,,5
1508446566.566034,-0.041808,0.053282,-0.062081,0.005638,0.008476,-0.004661,-0.041736,-0.053257,-0.997708,-0.002301,0.001453,0.007459,-12.259758,-15.953135,-43.639217,,,,,,,5
1508446566.586070,-0.041835,0.053078,-0.062171,0.000313,0.012723,-0.005766,-0.041764,-0.053053,-0.997718,-0.005935,0.006682,0.003272,-12.254976,-15.957482,-43.638973,,,,,,,5
1508446566.606056,-0.041667,0.052896,-0.062297,0.001381,0.012715,-0.007887,-0.041596,-0.052872,-0.997735,-0.005035,0.008408,0.002526,-12.254182,-15.951765,-43.641285,,,,,,,5
1508446566.626091,-0.041628,0.052658,-0.062415,0.008833,0.007403,-0.006764,-0.041559,-0.052634,-0.997749,-0.001441,0.007468,0.003394,-12.246267,-15.940258,-43.647713,,,,,,,5
1508446566.646101,-0.041523,0.052573,-0.062503,0.009889,0.014846,-0.004620,-0.041453,-0.052549,-0.997758,-0.004491,0.006742,0.001832,-12.239100,-15.936625,-43.651047,,,,,,,5
1508446566.666111,-0.041143,0.052624,-0.062528,0.007744,0.030797,-0.000367,-0.041074,-0.052600,-0.997771,-0.005328,0.006518,0.002058,-12.235551,-15.935180,-43.652573,,,,,,,5
1508446566.686121,-0.040568,0.052534,-0.062461,0.007730,0.041435,0.003900,-0.040501,-0.052510,-0.997799,-0.000027,0.001805,0.003124,-12.207677,-15.930475,-43.662090,,,,,,,5
1508446566.706117,-0.039332,0.052581,-0.062384,0.000235,0.053232,0.002780,-0.039268,-0.052557,-0.997846,0.006919,-0.000299,0.000302,-12.164156,-15.931424,-43.673889,,,,,,,5
1508446566.726131,-0.038000,0.052474,-0.062399,-0.008275,0.053222,-0.001549,-0.037938,-0.052450,-0.997903,0.009527,-0.000879,-0.000648,-12.133767,-15.930719,-43.682602,,,,,,,5
1508446566.746151,-0.036655,0.052512,-0.062511,-0.001874,0.044707,-0.005762,-0.036596,-0.052488,-0.997951,0.009023,-0.003451,0.012798,-12.046068,-15.925956,-43.708599,,,,,,,5
1508446566.766154,-0.035689,0.052711,-0.062628,0.004521,0.028774,-0.004656,-0.035632,-0.052687,-0.997975,0.012591,-0.005998,0.013142,-11.990033,-15.938709,-43.719357,,,,,,,5
1508446566.786171,-0.034896,0.052885,-0.062691,-0.002933,0.019229,-0.001531,-0.034841,-0.052860,-0.997994,0.015325,-0.006634,0.011986,-11.977105,-15.940885,-43.722107,,,,,,,5
1508446566.806182,-0.034153,0.052937,-0.062717,-0.010381,-0.000937,0.001586,-0.034099,-0.052912,-0.998017,0.012523,-0.001547,0.002091,-11.926857,-15.951457,-43.731987,,,,,,,5
1508446566.826182,-0.034231,0.052564,-0.062727,-0.006110,-0.019006,-0.000521,-0.034178,-0.052540,-0.998034,0.002317,0.005497,0.002383,-11.916267,-15.940996,-43.738689,,,,,,,5
1508446566.846201,-0.034757,0.052406,-0.062754,0.001351,-0.030699,-0.001533,-0.034702,-0.052382,-0.998024,0.001102,0.006743,-0.000633,-11.929070,-15.933578,-43.737900,,,,,,,5
1508446566.866204,-0.035557,0.052310,-0.062752,0.006633,-0.032712,-0.001498,-0.035501,-0.052287,-0.998001,-0.002325,0.003138,-0.000794,-11.951321,-15.922788,-43.735756,,,,,,,5
1508446566.886222,-0.036354,0.052499,-0.062767,0.002370,-0.024211,-0.001526,-0.036296,-0.052475,-0.997962,-0.006307,-0.002655,0.002586,-11.999031,-15.928774,-43.720509,,,,,,,5
1508446566.906222,-0.036854,0.052552,-0.062755,-0.000835,-0.012513,0.001650,-0.036794,-0.052527,-0.997941,-0.007563,-0.001290,0.002992,-12.015130,-15.932662,-43.714676,,,,,,,5
1508446566.926221,-0.037337,0.052154,-0.062702,-0.005100,-0.002951,0.001622,-0.037278,-0.052131,-0.997944,-0.004378,0.008140,0.009602,-12.049242,-15.924839,-43.708134,,,,,,,5
1508446566.946253,-0.037483,0.051737,-0.062688,-0.002971,-0.000831,0.000577,-0.037424,-0.051714,-0.997961,-0.001425,0.008226,0.006063,-12.059618,-15.905842,-43.712189,,,,,,,5
1508446566.966244,-0.037538,0.051592,-0.062646,0.004478,-0.001890,0.002767,-0.037479,-0.051569,-0.997966,-0.001232,0.008234,0.005550,-12.061850,-15.897083,-43.714760,,,,,,,5
1508446566.986273,-0.037801,0.051557,-0.062551,0.006606,-0.006133,0.004911,-0.037742,-0.051534,-0.997958,-0.003717,0.002141,0.003695,-12.071898,-15.888954,-43.714943,,,,,,,5
1508446567.006283,-0.037988,0.051625,-0.062414,0.002341,0.004492,0.004884,-0.037928,-0.051602,-0.997947,-0.002034,0.000699,0.005744,-12.085869,-15.890007,-43.710697,,,,,,,5
1508446567.026292,-0.037871,0.051658,-0.062328,0.001277,0.011922,0.002751,-0.037812,-0.051635,-0.997950,-0.003784,-0.001313,0.003886,-12.086357,-15.889806,-43.710632,,,,,,,5
1508446567.046304,-0.037859,0.051720,-0.062269,0.005486,0.010925,0.003841,-0.037799,-0.051697,-0.997947,-0.001065,-0.000701,0.003685,-12.084831,-15.890482,-43.710815,,,,,,,5
1508446567.066293,-0.037526,0.051885,-0.062184,0.005483,0.018361,0.003846,-0.037466,-0.051862,-0.997951,0.002127,-0.000995,0.003841,-12.078778,-15.895874,-43.710529,,,,,,,5
1508446567.086296,-0.037232,0.051938,-0.062131,0.000170,0.007730,0.000600,-0.037173,-0.051915,-0.997959,0.001514,-0.000148,0.011174,-12.067389,-15.899863,-43.712219,,,,,,,5
1508446567.106335,-0.036983,0.052159,-0.062168,0.003372,0.003469,-0.002571,-0.036925,-0.052136,-0.997957,0.004515,-0.003803,0.009111,-12.051507,-15.905856,-43.714424,,,,,,,5
1508446567.126322,-0.036841,0.052380,-0.062245,0.002307,0.005594,-0.002578,-0.036782,-0.052356,-0.997951,0.002099,-0.006344,0.003749,-12.040536,-15.920722,-43.712032,,,,,,,5
1508446567.146354,-0.036596,0.052482,-0.062307,-0.004085,0.009851,-0.001563,-0.036538,-0.052458,-0.997954,0.002801,-0.006258,0.004424,-12.037360,-15.921642,-43.712574,,,,,,,5
1508446567.166365,-0.036218,0.052322,-0.062325,-0.006218,0.009861,0.000549,-0.036160,-0.052298,-0.997977,0.003003,0.003272,-0.002313,-12.015921,-15.924277,-43.717510,,,,,,,5
1508446567.186375,-0.036019,0.052105,-0.062300,0.001186,-0.000654,0.001656,-0.035962,-0.052082,-0.997995,0.002897,0.003253,0.003076,-12.004969,-15.912554,-43.724785,,,,,,,5
1508446567.206384,-0.036061,0.052131,-0.062300,0.005452,-0.009162,-0.000445,-0.036004,-0.052107,-0.997992,0.004449,0.003233,0.001380,-12.004852,-15.911422,-43.725231,,,,,,,5
,,,,,,,,,,,,,,,,42.293433,-71.264288,58.590046,-1.000000,-1.000000,1508446567.189240,5
1508446567.226369,-0.036234,0.052170,-0.062358,-0.000929,-0.011294,-0.003693,-0.036177,-0.052147,-0.997984,-0.000780,-0.002388,0.004805,-12.008037,-15.910767,-43.724594,,,,,,,5
1508446567.246404,-0.036509,0.052030,-0.062428,-0.008387,-0.001730,-0.003748,-0.036451,-0.052006,-0.997981,-0.006350,0.001591,0.007594,-12.015828,-15.910692,-43.722481,,,,,,,5
1508446567.266394,-0.036547,0.051791,-0.062483,-0.005200,0.003588,-0.001588,-0.036489,-0.051768,-0.997992,-0.003824,0.003855,0.006278,-12.021606,-15.906036,-43.722588,,,,,,,5
1508446567.286420,-0.036866,0.051493,-0.062405,0.002242,0.001481,0.004861,-0.036809,-0.051470,-0.997996,-0.004161,0.003618,0.005366,-12.034361,-15.886834,-43.726059,,,,,,,5
1508446567.306333,-0.036881,0.051510,-0.062270,0.005433,-0.000638,0.007015,-0.036823,-0.051488,-0.997995,-0.000439,0.002583,0.006555,-12.039667,-15.884546,-43.725433,,,,,,,5
1508446567.326340,-0.036858,0.051502,-0.062171,0.001180,0.001474,0.002723,-0.036801,-0.051479,-0.997996,0.001217,0.003597,0.007441,-12.041492,-15.884022,-43.725117,,,,,,,5
1508446567.346354,-0.036670,0.051404,-0.062143,0.001122,0.004732,0.000584,-0.036614,-0.051381,-0.998008,0.002754,0.002828,0.002814,-12.037010,-15.879397,-43.728035,,,,,,,5
1508446567.366363,-0.036521,0.051426,-0.062103,0.002185,0.000491,0.002719,-0.036465,-0.051403,-0.998012,0.004528,0.001141,0.002346,-12.031511,-15.878324,-43.729935,,,,,,,5
1508446567.386373,-0.036577,0.051542,-0.062016,0.005380,-0.008002,0.004868,-0.036520,-0.051519,-0.998004,0.002416,-0.001200,0.002139,-12.028510,-15.878506,-43.730694,,,,,,,5
1508446567.406385,-0.036859,0.051905,-0.061905,0.011775,-0.024998,0.005973,-0.036801,-0.051882,-0.997975,0.001477,-0.003156,0.002522,-12.040032,-15.891709,-43.722729,,,,,,,5
1508446567.426391,-0.037560,0.052355,-0.061792,0.025627,-0.044127,0.006073,-0.037499,-0.052331,-0.997925,0.002084,-0.002311,0.002625,-12.059243,-15.903599,-43.713108,,,,,,,5
1508446567.446404,-0.038500,0.052982,-0.061592,0.027753,-0.055794,0.011405,-0.038437,-0.052957,-0.997857,0.007477,-0.003012,0.003060,-12.094257,-15.930084,-43.693790,,,,,,,5
1508446567.466415,-0.039361,0.053655,-0.061303,0.012839,-0.049400,0.014481,-0.039294,-0.053630,-0.997787,0.004520,-0.007604,0.004135,-12.127233,-15.951479,-43.676838,,,,,,,5
1508446567.486400,-0.040209,0.053750,-0.061071,-0.005262,-0.026042,0.007961,-0.040140,-0.053724,-0.997749,-0.004691,-0.000200,0.010490,-12.182371,-15.971523,-43.654163,,,,,,,5
1508446567.506435,-0.040697,0.053444,-0.060960,-0.007399,0.002626,0.003706,-0.040628,-0.053419,-0.997745,-0.014197,0.007551,0.007282,-12.209564,-15.965803,-43.648655,,,,,,,5
1508446567.526446,-0.041065,0.053316,-0.060866,0.006372,0.017567,0.002756,-0.040995,-0.053291,-0.997737,-0.013799,0.003273,0.003047,-12.237421,-15.950319,-43.646519,,,,,,,5
1508446567.546455,-0.040845,0.053390,-0.060713,0.005294,0.023960,0.008076,-0.040775,-0.053364,-0.997742,-0.002560,0.000294,0.002732,-12.241615,-15.948526,-43.646000,,,,,,,5
1508446567.566465,-0.040308,0.053440,-0.060539,-0.000028,0.021838,0.008030,-0.040240,-0.053415,-0.997761,0.003588,-0.001029,-0.000850,-12.229699,-15.950095,-43.648766,,,,,,,5
1508446567.586458,-0.039602,0.053223,-0.060494,-0.010658,0.015442,-0.000580,-0.039536,-0.053198,-0.997801,0.005600,0.006003,0.003844,-12.193036,-15.945162,-43.660820,,,,,,,5
1508446567.606487,-0.039408,0.052791,-0.060603,-0.008510,0.000546,-0.006962,-0.039343,-0.052766,-0.997832,-0.000177,0.006593,0.007063,-12.173525,-15.929657,-43.671925,,,,,,,5
1508446567.626492,-0.039607,0.052631,-0.060731,0.001076,-0.012203,-0.005828,-0.039542,-0.052607,-0.997832,-0.001367,0.005854,0.005446,-12.173846,-15.921638,-43.674759,,,,,,,5
1508446567.646499,-0.039812,0.052654,-0.060777,0.010647,-0.011122,0.000640,-0.039747,-0.052630,-0.997823,0.001737,-0.000898,0.002324,-12.183008,-15.913681,-43.675102,,,,,,,5
1508446567.666516,-0.039981,0.052935,-0.060709,0.003121,-0.003602,0.004833,-0.039914,-0.052910,-0.997801,-0.001986,-0.001838,-0.000902,-12.193918,-15.927861,-43.666889,,,,,,,5
1508446567.686525,-0.040058,0.052733,-0.060655,-0.009651,0.004884,-0.000590,-0.039992,-0.052709,-0.997809,-0.004503,0.003927,0.005087,-12.198384,-15.927649,-43.665718,,,,,,,5
1508446567.706538,-0.040332,0.052512,-0.060646,0.000997,0.001691,-0.000505,-0.040266,-0.052487,-0.997809,-0.008868,0.003232,0.009147,-12.200291,-15.918494,-43.668530,,,,,,,5
1508446567.726543,-0.040502,0.052681,-0.060610,0.013774,-0.008927,0.002787,-0.040435,-0.052657,-0.997794,-0.002045,0.003417,0.006156,-12.213313,-15.910515,-43.667793,,,,,,,5
1508446567.746556,-0.040640,0.053059,-0.060469,0.010569,-0.005720,0.008087,-0.040572,-0.053034,-0.997768,0.000853,-0.004324,0.005749,-12.224631,-15.928429,-43.658096,,,,,,,5
1508446567.766568,-0.040521,0.053299,-0.060312,-0.003274,-0.000400,0.007977,-0.040452,-0.053273,-0.997760,0.002183,-0.001033,0.004886,-12.227564,-15.938486,-43.653603,,,,,,,5
1508446567.786560,-0.040500,0.053085,-0.060173,-0.006469,0.010214,0.004764,-0.040432,-0.053060,-0.997773,-0.003483,0.004232,0.002365,-12.226292,-15.938209,-43.654060,,,,,,,5
1508446567.806588,-0.040353,0.052982,-0.060114,0.003118,0.012322,0.001651,-0.040286,-0.052957,-0.997784,-0.005781,0.003992,0.004254,-12.224276,-15.929704,-43.657730,,,,,,,5
1508446567.826599,-0.040331,0.053138,-0.060071,0.009447,0.006001,0.001688,-0.040264,-0.053113,-0.997776,-0.002278,-0.001071,0.001759,-12.223742,-15.925776,-43.659309,,,,,,,5
1508446567.846608,-0.040091,0.053309,-0.060040,0.005189,0.003879,0.001651,-0.040023,-0.053284,-0.997777,0.006774,-0.001159,0.000539,-12.211200,-15.938352,-43.658234,,,,,,,5
1508446567.866618,-0.039820,0.053391,-0.060017,-0.000134,0.002820,0.001606,-0.039752,-0.053366,-0.997783,0.009631,-0.002664,0.001858,-12.210001,-15.940416,-43.657814,,,,,,,5
1508446567.886629,-0.039716,0.053282,-0.060004,-0.004389,-0.000368,0.000504,-0.039650,-0.053256,-0.997793,0.000770,0.001773,0.003668,-12.195113,-15.940311,-43.662010,,,,,,,5
1508446567.906639,-0.039945,0.053084,-0.060050,0.000946,-0.005701,-0.004780,-0.039878,-0.053059,-0.997795,-0.005425,0.005116,0.006599,-12.197204,-15.933952,-43.663750,,,,,,,5
1508446567.926649,-0.040271,0.053195,-0.060096,0.009459,-0.012065,-0.000455,-0.040204,-0.053170,-0.997776,-0.005466,0.001152,0.004856,-12.205768,-15.930463,-43.662628,,,,,,,5
1508446567.946658,-0.040311,0.053670,-0.060013,0.005180,0.000716,0.008037,-0.040242,-0.053644,-0.997749,0.005604,-0.005713,0.004768,-12.224900,-15.948727,-43.650608,,,,,,,5
1508446567.966669,-0.039979,0.053693,-0.059890,-0.004403,0.010275,0.005836,-0.039911,-0.053668,-0.997761,0.002741,0.001193,0.007099,-12.211507,-15.956819,-43.651402,,,,,,,5
1508446567.986658,-0.039985,0.053325,-0.059836,-0.004394,0.008132,0.000510,-0.039917,-0.053300,-0.997780,-0.006714,0.007462,0.004891,-12.205475,-15.946611,-43.656818,,,,,,,5
1508446568.006690,-0.040162,0.053169,-0.059807,0.005122,0.004993,0.001640,-0.040094,-0.053143,-0.997782,-0.007361,0.001737,0.000025,-12.211121,-15.931366,-43.660805,,,,,,,5
1508446568.026699,-0.040350,0.053496,-0.059692,0.009379,-0.008801,0.006989,-0.040281,-0.053471,-0.997757,0.000593,-0.006191,0.002548,-12.224421,-15.936659,-43.655151,,,,,,,5
1508446568.046689,-0.040479,0.053913,-0.059508,0.011505,-0.007731,0.009136,-0.040409,-0.053887,-0.997729,0.003757,-0.009041,0.006198,-12.228979,-15.945783,-43.650539,,,,,,,5
1508446568.066714,-0.040168,0.054573,-0.059335,0.005117,-0.000294,0.008024,-0.040098,-0.054546,-0.997706,0.006101,-0.005619,0.006220,-12.231007,-15.972168,-43.640324,,,,,,,5
1508446568.086730,-0.040072,0.054616,-0.059187,-0.002337,0.006081,0.006903,-0.040002,-0.054589,-0.997707,-0.000693,-0.000404,0.006878,-12.220368,-15.988394,-43.637363,,,,,,,5
1508446568.106739,-0.039987,0.054391,-0.059163,-0.002323,0.010296,-0.002676,-0.039918,-0.054364,-0.997723,-0.003295,0.004514,0.003476,-12.219233,-15.982789,-43.639736,,,,,,,5
1508446568.126740,-0.039902,0.054268,-0.059141,0.004058,0.008183,0.001634,-0.039833,-0.054241,-0.997733,0.000389,0.004360,0.004844,-12.215039,-15.977776,-43.642746,,,,,,,5
1508446568.146761,-0.039536,0.054111,-0.059092,0.000800,0.013546,0.002663,-0.039467,-0.054084,-0.997756,0.003243,0.005607,0.001464,-12.204111,-15.969563,-43.648808,,,,,,,5
1508446568.166770,-0.038883,0.053951,-0.059112,-0.005588,0.019918,0.000486,-0.038817,-0.053925,-0.997790,0.008833,0.001953,0.005206,-12.185571,-15.961262,-43.657024,,,,,,,5
1508446568.186781,-0.038165,0.053512,-0.059231,-0.015157,0.020956,-0.008110,-0.038101,-0.053487,-0.997841,0.007782,0.006032,0.005471,-12.149030,-15.947598,-43.672199,,,,,,,5
1508446568.206787,-0.037589,0.052975,-0.059554,-0.017265,0.009240,-0.017719,-0.037528,-0.052950,-0.997892,0.006903,0.006548,0.005231,-12.121698,-15.930119,-43.686169,,,,,,,5
1508446568.226800,-0.037707,0.052677,-0.059974,-0.014052,-0.017332,-0.020907,-0.037645,-0.052653,-0.997903,0.002733,0.007075,0.001382,-12.104788,-15.914886,-43.696411,,,,,,,5
1508446568.246812,-0.038530,0.052339,-0.060345,0.007242,-0.040691,-0.014360,-0.038467,-0.052315,-0.997889,-0.005722,0.007058,-0.001622,-12.125378,-15.904058,-43.694641,,,,,,,5
1508446568.266821,-0.039545,0.052889,-0.060429,0.025318,-0.045956,0.001756,-0.039479,-0.052865,-0.997821,-0.002834,-0.005943,0.002231,-12.171443,-15.919507,-43.676205,,,,,,,5
1508446568.286832,-0.040216,0.053436,-0.060378,0.006143,-0.024700,0.001614,-0.040148,-0.053410,-0.997765,0.000307,-0.010982,0.001412,-12.171443,-15.919507,-43.676205,,,,,,,5
1508446568.306842,-0.040711,0.053651,-0.060443,-0.015203,-0.007703,-0.008147,-0.040641,-0.053626,-0.997734,-0.007989,-0.004159,0.009300,-12.217928,-15.960825,-43.648140,,,,,,,5
1508446568.326852,-0.041387,0.053285,-0.060680,-0.013067,0.000770,-0.014512,-0.041317,-0.053260,-0.997726,-0.017292,0.003928,0.010329,-12.243728,-15.953461,-43.643600,,,,,,,5
1508446568.346864,-0.041306,0.053241,-0.060912,0.001826,0.005034,-0.007997,-0.041236,-0.053216,-0.997731,-0.021264,0.004769,0.007558,-12.256925,-15.943895,-43.643391,,,,,,,5
1508446568.366854,-0.041713,0.053707,-0.060858,0.001798,0.017825,0.004789,-0.041641,-0.053681,-0.997690,-0.004410,-0.004546,0.004419,-12.268918,-15.960593,-43.633915,,,,,,,5
1508446568.386882,-0.041102,0.053579,-0.060672,-0.010998,0.039097,0.010024,-0.041032,-0.053554,-0.997722,0.001710,0.002391,0.006221,-12.255239,-15.962994,-43.636887,,,,,,,5
1508446568.406888,-0.040183,0.053209,-0.060577,-0.009925,0.046507,0.002585,-0.040115,-0.053184,-0.997779,0.000061,0.006279,0.007987,-12.236966,-15.954843,-43.644993,,,,,,,5
1508446568.426882,-0.039312,0.052535,-0.060610,-0.007783,0.035865,-0.002729,-0.039247,-0.052511,-0.997849,0.002062,0.006842,0.001282,-12.179299,-15.919255,-43.674107,,,,,,,5
1508446568.446913,-0.038578,0.052285,-0.060690,-0.010970,0.025240,-0.003828,-0.038516,-0.052261,-0.997890,0.005450,0.001556,0.002392,-12.147295,-15.904499,-43.688393,,,,,,,5
1508446568.466923,-0.037949,0.052019,-0.060770,-0.017359,0.026306,-0.003880,-0.037889,-0.051995,-0.997928,0.005021,-0.002326,0.001316,-12.130251,-15.898298,-43.695385,,,,,,,5
1508446568.486934,-0.037500,0.051684,-0.060876,-0.005698,0.011448,-0.005943,-0.037441,-0.051661,-0.997963,-0.000355,0.004420,0.003013,-12.089461,-15.881447,-43.712818,,,,,,,5
1508446568.506944,-0.037330,0.051825,-0.060993,0.023055,-0.011926,-0.002529,-0.037272,-0.051801,-0.997962,0.006556,-0.000353,0.000785,-12.081687,-15.878054,-43.716202,,,,,,,5
1508446568.526953,-0.037234,0.052675,-0.060887,0.019849,-0.026753,0.009145,-0.037173,-0.052650,-0.997921,0.012942,-0.008110,-0.001316,-12.073976,-15.903358,-43.709126,,,,,,,5
1508446568.546964,-0.037432,0.052922,-0.060790,-0.009947,-0.034195,0.002505,-0.037371,-0.052898,-0.997900,0.008303,-0.002507,0.006918,-12.074562,-15.920235,-43.702824,,,,,,,5
1508446568.566955,-0.038282,0.052547,-0.060845,-0.005678,-0.031037,-0.004910,-0.038220,-0.052523,-0.997888,-0.009021,0.006563,0.010599,-12.098705,-15.922668,-43.695259,,,,,,,5
1508446568.586972,-0.039198,0.052507,-0.060897,0.009217,-0.016166,-0.002646,-0.039134,-0.052483,-0.997855,-0.021276,0.006920,0.004157,-12.131905,-15.915568,-43.688641,,,,,,,5
1508446568.606994,-0.040020,0.052680,-0.060795,0.004934,0.005107,0.004788,-0.039954,-0.052656,-0.997813,-0.016244,-0.002276,0.001124,-12.181801,-15.912414,-43.675903,,,,,,,5
1508446568.626995,-0.040129,0.052784,-0.060622,-0.007855,0.019996,0.007888,-0.040062,-0.052760,-0.997803,-0.009056,-0.003209,0.000931,-12.203299,-15.923491,-43.665863,,,,,,,5
1508446568.647014,-0.039726,0.052542,-0.060519,-0.005722,0.026354,0.003651,-0.039661,-0.052518,-0.997832,-0.004620,0.003400,0.004485,-12.194984,-15.917405,-43.670406,,,,,,,5
1508446568.667026,-0.039349,0.052263,-0.060486,0.001673,0.023176,-0.000571,-0.039285,-0.052239,-0.997862,-0.002356,0.006616,0.006590,-12.187442,-15.903914,-43.677425,,,,,,,5
1508446568.687011,-0.039053,0.052258,-0.060527,0.004879,0.007232,-0.002686,-0.038990,-0.052234,-0.997873,0.003254,0.001971,0.007929,-12.166254,-15.896570,-43.686005,,,,,,,5
1508446568.707028,-0.038777,0.052436,-0.060542,0.003805,0.010435,0.001566,-0.038714,-0.052412,-0.997875,0.005541,-0.004336,0.006954,-12.157976,-15.899467,-43.687256,,,,,,,5
1508446568.727049,-0.038178,0.052676,-0.060441,-0.000467,0.020019,0.006862,-0.038115,-0.052652,-0.997885,0.004210,-0.004386,0.002539,-12.129682,-15.911928,-43.690582,,,,,,,5
1508446568.747065,-0.037532,0.052840,-0.060311,0.001666,0.018953,0.005814,-0.037471,-0.052815,-0.997901,0.005076,-0.003765,0.002616,-12.103741,-15.917844,-43.695625,,,,,,,5
1508446568.767056,-0.037060,0.053015,-0.060218,0.001674,0.007265,0.004740,-0.037000,-0.052990,-0.997909,0.005933,-0.002949,0.002243,-12.084073,-15.925321,-43.698341,,,,,,,5
1508446568.787087,-0.036712,0.053080,-0.060158,-0.002626,-0.003344,0.003614,-0.036652,-0.053055,-0.997919,0.009171,-0.002029,0.004236,-12.075525,-15.928389,-43.699589,,,,,,,5
1508446568.807096,-0.036538,0.052988,-0.060152,-0.010074,-0.002288,0.000359,-0.036479,-0.052963,-0.997930,0.003489,-0.000000,0.006582,-12.056383,-15.928286,-43.704910,,,,,,,5
1508446568.827106,-0.036543,0.052547,-0.060191,-0.015399,0.006206,-0.001808,-0.036484,-0.052523,-0.997953,-0.002914,0.004168,0.005704,-12.053687,-15.917436,-43.709606,,,,,,,5
1508446568.847118,-0.036468,0.052053,-0.060252,-0.016466,0.016822,-0.003939,-0.036410,-0.052030,-0.997982,-0.005078,0.004834,0.002895,-12.051946,-15.903866,-43.715027,,,,,,,5
1508446568.867111,-0.036155,0.051661,-0.060380,-0.017528,0.023186,-0.007137,-0.036099,-0.051638,-0.998013,-0.004535,0.000032,0.003857,-12.036512,-15.873577,-43.730278,,,,,,,5
1508446568.887137,-0.036151,0.051430,-0.060603,-0.006862,0.008284,-0.013448,-0.036095,-0.051407,-0.998025,-0.008491,0.000366,0.005685,-12.031424,-15.864701,-43.734901,,,,,,,5
1508446568.907148,-0.036487,0.051681,-0.060847,0.018701,-0.024646,-0.009003,-0.036430,-0.051658,-0.998000,-0.005409,-0.002206,0.002593,-12.031801,-15.862321,-43.735664,,,,,,,5
1508446568.927154,-0.037200,0.052276,-0.060832,0.005912,-0.052208,0.005777,-0.037140,-0.052252,-0.997943,0.006592,-0.013529,-0.001294,-12.062195,-15.901112,-43.713196,,,,,,,5
1508446568.947167,-0.038634,0.052103,-0.060790,-0.028128,-0.090456,-0.000922,-0.038572,-0.052079,-0.997898,0.004957,-0.007705,0.002445,-12.088258,-15.901143,-43.705990,,,,,,,5
1508446568.967178,-0.041982,0.051053,-0.060912,-0.033475,-0.128691,-0.009533,-0.041915,-0.051031,-0.997817,-0.029832,0.009390,0.015288,-12.174705,-15.879415,-43.689888,,,,,,,5
1508446568.987181,-0.046899,0.050154,-0.060972,-0.022833,-0.145675,-0.002004,-0.046823,-0.050133,-0.997644,-0.050085,0.008491,0.004587,-12.385370,-15.828418,-43.649162,,,,,,,5
1508446569.007198,-0.049770,0.049755,-0.060764,-0.020748,-0.134974,0.020381,-0.049688,-0.049734,-0.997526,-0.052378,0.006583,0.001112,-12.529799,-15.805402,-43.616268,,,,,,,5
1508446569.027209,-0.051969,0.049244,-0.060264,-0.025047,-0.089258,0.029963,-0.051883,-0.049224,-0.997439,-0.039472,-0.008866,0.018237,-12.654826,-15.783639,-43.588043,,,,,,,5
1508446569.047219,-0.053786,0.048922,-0.059643,-0.002727,-0.003231,0.028083,-0.053696,-0.048902,-0.997359,-0.040390,0.000135,0.021468,-12.759325,-15.748513,-43.570282,,,,,,,5
1508446569.067230,-0.053340,0.049320,-0.059241,0.026029,0.029639,0.014503,-0.053250,-0.049300,-0.997364,-0.062259,0.006408,-0.000027,-12.815560,-15.742130,-43.556080,,,,,,,5
1508446569.087222,-0.053954,0.048537,-0.058963,-0.080463,0.064745,0.013651,-0.053864,-0.048518,-0.997369,-0.058608,0.006098,-0.009589,-12.781876,-15.744499,-43.565125,,,,,,,5
1508446569.107249,-0.051031,0.045267,-0.058612,-0.194542,0.198765,0.035154,-0.050957,-0.045252,-0.997675,-0.065773,0.057947,-0.017324,-12.753853,-15.613914,-43.620300,,,,,,,5
1508446569.127255,-0.046203,0.041905,-0.057885,-0.129641,0.249770,0.048506,-0.046146,-0.041893,-0.998056,-0.066387,0.077293,-0.017172,-12.753853,-15.613914,-43.620300,,,,,,,5
1508446569.147271,-0.043227,0.038414,-0.056638,-0.050878,0.193519,0.076797,-0.043182,-0.038404,-0.998329,-0.017747,0.044523,0.008247,-12.440082,-15.260882,-43.835323,,,,,,,5
1508446569.167280,-0.039849,0.036614,-0.054544,-0.054149,0.168200,0.126795,-0.039811,-0.036606,-0.998536,-0.000395,0.027894,0.024049,-12.310984,-15.196191,-43.894203,,,,,,,5
1508446569.187289,-0.036389,0.035172,-0.051319,-0.069163,0.185403,0.183115,-0.036359,-0.035164,-0.998720,0.000622,0.022606,0.030489,-12.257828,-15.121320,-43.934917,,,,,,,5
1508446569.207301,-0.032505,0.034041,-0.047266,-0.033028,0.209927,0.214310,-0.032480,-0.034034,-0.998893,-0.000967,0.007759,0.028815,-12.149511,-15.019110,-44.000011,,,,,,,5
1508446569.227313,-0.028033,0.033605,-0.042653,-0.007537,0.230204,0.244348,-0.028014,-0.033599,-0.999043,0.008116,-0.002931,0.017094,-11.990718,-14.916254,-44.078495,,,,,,,5
1508446569.247319,-0.023269,0.033051,-0.037333,-0.032103,0.252656,0.281428,-0.023254,-0.033045,-0.999183,0.005279,-0.005865,0.005333,-11.857265,-14.847064,-44.137917,,,,,,,5
1508446569.267331,-0.018640,0.032039,-0.031173,-0.043923,0.225221,0.327080,-0.018630,-0.032034,-0.999313,0.000334,-0.008829,-0.017090,-11.690491,-14.719260,-44.225124,,,,,,,5
1508446569.287323,-0.015366,0.032264,-0.024042,0.001821,0.144625,0.374245,-0.015358,-0.032258,-0.999362,-0.001869,-0.023437,-0.006864,-11.618693,-14.644187,-44.268944,,,,,,,5
1508446569.307350,-0.013417,0.032790,-0.016208,0.044400,0.093683,0.394788,-0.013409,-0.032784,-0.999372,0.013974,-0.042610,0.013243,-11.616735,-14.587560,-44.288147,,,,,,,5
1508446569.327362,-0.011410,0.035000,-0.008476,0.031661,0.084075,0.378704,-0.011402,-0.034993,-0.999322,0.019505,-0.047389,0.017038,-11.660603,-14.521206,-44.298424,,,,,,,5
1508446569.347371,-0.009858,0.035072,-0.001153,-0.004514,0.092533,0.361376,-0.009851,-0.035064,-0.999336,0.012811,-0.033417,-0.008156,-11.662748,-14.516172,-44.299511,,,,,,,5
1508446569.367382,-0.008080,0.034734,0.006158,-0.016245,0.107434,0.367679,-0.008075,-0.034727,-0.999364,0.011890,-0.025865,-0.012309,-11.677699,-14.446570,-44.318321,,,,,,,5
1508446569.387394,-0.005785,0.034995,0.013484,-0.008785,0.108483,0.364547,-0.005781,-0.034988,-0.999371,0.009077,-0.018082,-0.002521,-11.673903,-14.348272,-44.351242,,,,,,,5
1508446569.407401,-0.003913,0.036651,0.020601,0.011484,0.095670,0.348733,-0.003911,-0.036643,-0.999321,-0.001704,-0.025583,-0.011620,-11.677922,-14.299216,-44.366024,,,,,,,5
1508446569.427395,-0.002699,0.037526,0.027309,0.009396,0.095592,0.326356,-0.002697,-0.037518,-0.999292,-0.012608,-0.022678,-0.012655,-11.687856,-14.299797,-44.363220,,,,,,,5
1508446569.447421,-0.001878,0.039001,0.033545,0.038129,0.159217,0.296814,-0.001876,-0.038991,-0.999238,-0.019013,-0.007243,0.039185,-11.745631,-14.268791,-44.357944,,,,,,,5
1508446569.467433,0.001105,0.040978,0.038918,0.085026,0.237631,0.248282,0.001104,-0.040967,-0.999160,-0.018408,-0.011310,0.027556,-11.703629,-14.275728,-44.366814,,,,,,,5
1508446569.487442,0.005624,0.043214,0.043119,0.079821,0.234215,0.182222,0.005619,-0.043201,-0.999051,-0.009754,-0.016629,-0.001651,-11.653244,-14.301880,-44.371655,,,,,,,5
1508446569.507453,0.010375,0.045295,0.045628,0.057637,0.202046,0.092576,0.010364,-0.045279,-0.998921,0.083584,-0.065347,-0.019680,-11.401466,-14.401076,-44.404968,,,,,,,5
1508446569.527463,0.013468,0.046421,0.046823,0.053491,0.127532,0.048831,0.013453,-0.046405,-0.998832,0.083974,-0.086789,-0.001870,-11.265656,-14.435235,-44.428535,,,,,,,5
1508446569.547473,0.015028,0.047077,0.047564,0.016286,0.056326,0.034628,0.015011,-0.047060,-0.998779,0.052860,-0.083449,-0.000839,-11.219577,-14.452468,-44.434589,,,,,,,5
1508446569.567458,0.016433,0.046758,0.048204,-0.034833,0.087152,0.032100,0.016415,-0.046741,-0.998772,-0.008053,-0.026227,0.002907,-11.143245,-14.452461,-44.453796,,,,,,,5
1508446569.587477,0.018697,0.045716,0.048916,-0.058279,0.130720,0.031940,0.018676,-0.045700,-0.998781,-0.029693,0.007126,0.007158,-11.085237,-14.418005,-44.479481,,,,,,,5
1508446569.607504,0.021176,0.044718,0.049092,-0.038002,0.112532,-0.007314,0.021153,-0.044703,-0.998776,-0.035099,0.029429,0.004193,-10.977950,-14.360888,-44.524548,,,,,,,5
1508446569.627515,0.022630,0.044584,0.048201,0.015381,0.040047,-0.069748,0.022605,-0.044570,-0.998751,-0.001456,0.056685,-0.002623,-10.902275,-14.336985,-44.550835,,,,,,,5
1508446569.647522,0.022016,0.045432,0.046303,0.057020,-0.081188,-0.100374,0.021991,-0.045416,-0.998726,0.039548,0.011496,-0.008308,-10.838418,-14.372189,-44.555073,,,,,,,5
1508446569.667533,0.019543,0.046515,0.044546,0.050629,-0.150162,-0.079184,0.019521,-0.046498,-0.998728,0.040996,-0.001277,-0.001654,-10.870190,-14.425168,-44.530205,,,,,,,5
1508446569.687545,0.016600,0.047172,0.043131,0.022910,-0.134157,-0.063429,0.016581,-0.047154,-0.998750,-0.029444,-0.019267,0.017946,-10.972198,-14.489609,-44.484241,,,,,,,5
1508446569.707555,0.015236,0.047320,0.042102,0.001525,-0.024654,-0.043293,0.015218,-0.047302,-0.998765,-0.040883,-0.005035,0.021058,-11.092139,-14.533357,-44.440201,,,,,,,5
1508446569.727565,0.016263,0.047223,0.041546,-0.004965,0.088046,-0.017707,0.016244,-0.047206,-0.998753,-0.040979,0.004252,0.019490,-11.099370,-14.541349,-44.435780,,,,,,,5
1508446569.747555,0.018983,0.047144,0.041183,-0.002873,0.159227,-0.022975,0.018960,-0.047126,-0.998709,-0.023309,0.032890,0.003836,-10.963037,-14.542250,-44.469322,,,,,,,5
1508446569.767586,0.022487,0.046939,0.040491,-0.014560,0.172980,-0.041162,0.022460,-0.046922,-0.998646,-0.007980,0.036546,-0.006572,-10.844826,-14.543191,-44.497986,,,,,,,5
1508446569.787594,0.025183,0.045239,0.039663,0.000366,0.116676,-0.038951,0.025155,-0.045224,-0.998660,-0.005303,0.033108,-0.007779,-10.691795,-14.473560,-44.557686,,,,,,,5
1508446569.807581,0.026639,0.045849,0.039260,0.050386,0.045590,-0.005585,0.026608,-0.045833,-0.998595,-0.012356,0.009944,-0.006029,-10.571252,-14.496572,-44.578960,,,,,,,5
1508446569.827616,0.026268,0.047239,0.039588,0.081227,0.000012,0.028707,0.026236,-0.047221,-0.998540,-0.016791,-0.003255,-0.003856,-10.579720,-14.549212,-44.559799,,,,,,,5
1508446569.847627,0.026270,0.048719,0.040347,0.063092,0.009642,0.045600,0.026236,-0.048700,-0.998469,-0.023001,-0.020255,-0.004888,-10.588008,-14.597216,-44.542126,,,,,,,5
1508446569.867629,0.025824,0.050293,0.041331,0.023675,0.051097,0.047436,0.025788,-0.050272,-0.998403,-0.029664,-0.012731,0.001225,-10.591334,-14.631828,-44.529976,,,,,,,5
1508446569.887634,0.027649,0.050517,0.042157,0.006622,0.121183,0.036701,0.027610,-0.050496,-0.998343,-0.032569,-0.004375,0.006826,-10.624437,-14.680457,-44.506081,,,,,,,5
1508446569.907657,0.030902,0.050878,0.042676,0.024719,0.184858,0.020927,0.030857,-0.050856,-0.998229,-0.025807,0.002684,0.017242,-10.491705,-14.682766,-44.536797,,,,,,,5
1508446569.927668,0.033959,0.051819,0.043001,0.035391,0.192231,0.005050,0.033907,-0.051796,-0.998082,-0.020327,-0.005806,0.020268,-10.373368,-14.695902,-44.560177,,,,,,,5
1508446569.947662,0.037843,0.052511,0.042976,0.031123,0.207110,0.006090,0.037782,-0.052487,-0.997907,0.006957,-0.021549,0.019605,-10.199871,-14.744629,-44.584126,,,,,,,5
1508446569.967684,0.043010,0.053667,0.043149,0.004488,0.218838,0.013332,0.042935,-0.053641,-0.997637,0.014896,-0.019769,0.014406,-10.199871,-14.744629,-44.584126,,,,,,,5
1508446569.987699,0.046821,0.053590,0.043231,-0.008249,0.173137,-0.002804,0.046737,-0.053565,-0.997470,0.028474,0.002982,-0.000668,-9.752344,-14.805513,-44.664013,,,,,,,5
1508446570.007699,0.050500,0.052928,0.042959,-0.008201,0.125283,-0.017747,0.050408,-0.052903,-0.997327,0.019096,0.011247,-0.003452,-9.611552,-14.799254,-44.696598,,,,,,,5
1508446570.027718,0.052433,0.052866,0.042339,0.004637,0.074214,-0.037910,0.052336,-0.052841,-0.997231,0.015688,0.011566,-0.005455,-9.492611,-14.778019,-44.729031,,,,,,,5
1508446570.047729,0.053352,0.053164,0.041468,0.023845,0.023179,-0.047372,0.053252,-0.053139,-0.997166,0.014818,0.009758,-0.002834,-9.408020,-14.798131,-44.740253,,,,,,,5
1508446570.067738,0.053657,0.054065,0.040493,0.033446,-0.019310,-0.045196,0.053553,-0.054038,-0.997102,0.007696,-0.008324,-0.007964,-9.387183,-14.831856,-44.733459,,,,,,,5
1508446570.087749,0.052766,0.054746,0.039609,0.037714,-0.060721,-0.038803,0.052662,-0.054719,-0.997112,0.003566,-0.009627,-0.004963,-9.384504,-14.877006,-44.719028,,,,,,,5
1508446570.107760,0.051063,0.055822,0.038900,0.031323,-0.070261,-0.033540,0.050961,-0.055793,-0.997141,-0.007733,-0.009316,0.001810,-9.442832,-14.926716,-44.690170,,,,,,,5
1508446570.127770,0.048802,0.056228,0.038089,0.014305,-0.046944,-0.050698,0.048705,-0.056198,-0.997231,-0.016158,0.003113,0.012459,-9.527354,-14.979660,-44.654507,,,,,,,5
1508446570.147763,0.047745,0.055924,0.036841,0.003670,0.005035,-0.073106,0.047652,-0.055895,-0.997299,-0.021178,0.010027,0.017090,-9.527354,-14.979660,-44.654507,,,,,,,5
1508446570.167788,0.045954,0.054502,0.035372,-0.002729,0.048556,-0.081643,0.045869,-0.054475,-0.997461,-0.026185,0.012528,0.014047,-9.619174,-14.965439,-44.639587,,,,,,,5
1508446570.187800,0.046129,0.053573,0.033852,-0.001679,0.058128,-0.077368,0.046047,-0.053548,-0.997503,-0.010280,0.012181,0.002935,-9.619908,-14.943419,-44.646809,,,,,,,5
1508446570.207791,0.047188,0.052702,0.032417,-0.001692,0.050722,-0.068855,0.047105,-0.052677,-0.997500,-0.000276,0.011127,-0.005475,-9.596027,-14.901560,-44.665932,,,,,,,5
1508446570.227816,0.047925,0.051916,0.031119,0.003630,0.026308,-0.062441,0.047842,-0.051893,-0.997506,-0.001563,0.011487,-0.006614,-9.520587,-14.884065,-44.687904,,,,,,,5
1508446570.247830,0.047839,0.051335,0.029964,0.012144,0.002958,-0.054935,0.047758,-0.051313,-0.997540,-0.006727,0.011152,-0.004627,-9.496835,-14.869149,-44.697922,,,,,,,5
1508446570.267841,0.047268,0.051048,0.029017,0.014259,-0.007631,-0.044278,0.047189,-0.051025,-0.997582,-0.009713,0.008591,-0.003364,-9.505650,-14.858198,-44.699692,,,,,,,5
1508446570.287851,0.046328,0.050778,0.028273,0.000399,-0.003348,-0.035871,0.046252,-0.050757,-0.997639,-0.016635,0.005957,0.002126,-9.513385,-14.862380,-44.696651,,,,,,,5
1508446570.307861,0.045360,0.050516,0.027772,-0.004956,0.010511,-0.022063,0.045286,-0.050495,-0.997697,-0.022947,0.002399,0.008271,-9.559978,-14.851276,-44.690403,,,,,,,5
1508446570.327871,0.044518,0.050469,0.027555,-0.001790,0.022235,-0.009251,0.044447,-0.050448,-0.997737,-0.023695,-0.000456,0.008800,-9.602021,-14.848389,-44.682350,,,,,,,5
1508446570.347883,0.044602,0.050578,0.027506,0.002447,0.032889,0.000375,0.044530,-0.050556,-0.997728,-0.020345,-0.002362,0.009401,-9.618801,-14.848984,-44.678539,,,,,,,5
1508446570.367889,0.044916,0.051388,0.027647,0.006691,0.038227,0.008932,0.044842,-0.051365,-0.997673,-0.005566,-0.012401,0.006706,-9.604147,-14.872007,-44.674034,,,,,,,5
1508446570.387902,0.045760,0.051479,0.027870,0.003488,0.046735,0.011041,0.045683,-0.051456,-0.997630,-0.006407,-0.012311,0.006663,-9.604147,-14.872007,-44.674034,,,,,,,5
1508446570.407913,0.046859,0.051924,0.028069,-0.002900,0.060538,0.007804,0.046778,-0.051901,-0.997556,0.002889,-0.016550,0.008390,-9.534611,-14.908350,-44.676815,,,,,,,5
1508446570.427910,0.048561,0.052322,0.028159,-0.015672,0.073275,0.002385,0.048475,-0.052298,-0.997454,0.004915,-0.009454,0.003543,-9.470162,-14.915050,-44.688286,,,,,,,5
1508446570.447934,0.050420,0.052019,0.028129,-0.029504,0.080693,-0.005177,0.050330,-0.051996,-0.997378,0.008630,-0.006079,0.005648,-9.412529,-14.915007,-44.700474,,,,,,,5
1508446570.467944,0.052285,0.051450,0.027980,-0.033752,0.075370,-0.009475,0.052192,-0.051427,-0.997312,0.010629,-0.002680,0.002439,-9.295164,-14.894527,-44.731853,,,,,,,5
1508446570.487953,0.054099,0.050781,0.027663,-0.026274,0.058338,-0.019009,0.054003,-0.050759,-0.997250,0.016904,0.001580,0.003445,-9.245308,-14.874111,-44.748978,,,,,,,5
1508446570.507948,0.055211,0.050261,0.027182,-0.024122,0.054046,-0.030707,0.055113,-0.050239,-0.997215,0.017382,0.004951,0.004738,-9.178041,-14.856564,-44.768642,,,,,,,5
1508446570.527957,0.058567,0.049086,0.026397,-0.025167,0.037031,-0.038182,0.058463,-0.049066,-0.997083,0.028237,0.007425,-0.000018,-9.024526,-14.814862,-44.813652,,,,,,,5
1508446570.547983,0.060408,0.048077,0.025421,-0.024059,-0.007627,-0.050983,0.060302,-0.048058,-0.997023,0.025987,0.007195,-0.000551,-8.915114,-14.780126,-44.847012,,,,,,,5
1508446570.567990,0.060386,0.047348,0.024375,-0.024035,-0.056492,-0.051020,0.060281,-0.047331,-0.997059,0.025839,0.006376,-0.000881,-8.915114,-14.780126,-44.847012,,,,,,,5
1508446570.587985,0.059681,0.046468,0.023414,-0.022959,-0.102147,-0.044657,0.059581,-0.046451,-0.997142,0.015248,0.005435,-0.004323,-8.877554,-14.744315,-44.866245,,,,,,,5
1508446570.608015,0.057318,0.045949,0.022605,-0.012303,-0.140377,-0.039275,0.057226,-0.045933,-0.997304,0.005915,0.004108,-0.003459,-8.958056,-14.712618,-44.860649,,,,,,,5
1508446570.628024,0.054425,0.045681,0.021807,-0.003782,-0.142510,-0.040271,0.054342,-0.045665,-0.997478,0.001383,0.003352,-0.001744,-8.958056,-14.712618,-44.860649,,,,,,,5
1508446570.648035,0.051113,0.045359,0.020979,-0.005920,-0.108535,-0.045586,0.051038,-0.045344,-0.997667,-0.017743,0.003077,-0.000685,-9.193121,-14.702153,-44.816502,,,,,,,5
1508446570.668029,0.048786,0.045178,0.020085,-0.009131,-0.068174,-0.047712,0.048717,-0.045163,-0.997791,-0.024044,-0.000934,0.000217,-9.286943,-14.700078,-44.797832,,,,,,,5
1508446570.688054,0.047255,0.044893,0.019174,-0.017668,-0.033111,-0.046691,0.047189,-0.044878,-0.997877,-0.022836,-0.002485,0.001799,-9.286943,-14.700078,-44.797832,,,,,,,5
1508446570.708067,0.046861,0.044480,0.018258,-0.018740,-0.017175,-0.046688,0.046798,-0.044465,-0.997914,-0.019012,-0.001250,0.008656,-9.389570,-14.697090,-44.777420,,,,,,,5
1508446570.728062,0.046667,0.044134,0.017408,-0.014497,-0.007594,-0.040257,0.046605,-0.044119,-0.997939,-0.014836,-0.006906,0.010466,-9.392045,-14.688160,-44.779831,,,,,,,5
1508446570.748074,0.046662,0.043748,0.016746,-0.020907,0.002004,-0.030720,0.046600,-0.043734,-0.997956,-0.011291,-0.003965,0.007676,-9.388829,-14.683802,-44.781929,,,,,,,5
1508446570.768097,0.046393,0.043302,0.016193,-0.018776,-0.009675,-0.028581,0.046333,-0.043288,-0.997988,-0.005226,0.001449,0.002397,-9.386549,-14.665454,-44.788425,,,,,,,5
1508446570.788107,0.045878,0.043051,0.015651,-0.003858,-0.041545,-0.026353,0.045819,-0.043038,-0.998022,0.001315,0.001015,0.003653,-9.391844,-14.659195,-44.789364,,,,,,,5
1508446570.808116,0.044942,0.043203,0.015215,-0.001729,-0.064890,-0.018900,0.044885,-0.043190,-0.998058,0.005667,-0.006386,0.001110,-9.421679,-14.658616,-44.783283,,,,,,,5
1508446570.828128,0.043624,0.043943,0.014887,-0.001724,-0.088242,-0.013594,0.043568,-0.043929,-0.998084,0.004391,-0.014558,-0.001061,-9.475697,-14.705688,-44.756447,,,,,,,5
1508446570.848114,0.041525,0.045074,0.014732,0.001469,-0.113706,-0.004004,0.041471,-0.045058,-0.998123,-0.001157,-0.017915,-0.003967,-9.534207,-14.733173,-44.734978,,,,,,,5
1508446570.868149,0.038955,0.045447,0.014779,-0.008134,-0.096679,0.003383,0.038905,-0.045432,-0.998210,-0.012172,-0.014245,0.003810,-9.656891,-14.776807,-44.694252,,,,,,,5
1508446570.888156,0.036730,0.045319,0.014949,-0.021992,-0.073291,0.006481,0.036684,-0.045303,-0.998300,-0.024705,-0.002792,0.001183,-9.787426,-14.771391,-44.667637,,,,,,,5
1508446570.908168,0.033504,0.044520,0.015053,-0.029433,-0.058461,-0.005281,0.033464,-0.044505,-0.998448,-0.031603,0.003917,0.001851,-9.892399,-14.741789,-44.654293,,,,,,,5
1508446570.928158,0.031644,0.043963,0.014756,-0.019822,-0.048974,-0.024360,0.031608,-0.043949,-0.998534,-0.027671,0.002644,0.003355,-9.892399,-14.741789,-44.654293,,,,,,,5
1508446570.948189,0.028711,0.043370,0.014155,-0.014472,-0.051159,-0.039224,0.028680,-0.043357,-0.998648,-0.033899,0.005774,-0.006769,-10.096989,-14.698710,-44.622692,,,,,,,5
1508446570.968200,0.027834,0.043193,0.013215,-0.000625,-0.040557,-0.051910,0.027805,-0.043180,-0.998680,-0.036105,0.015134,-0.002495,-10.173022,-14.689293,-44.608521,,,,,,,5
1508446570.988208,0.027523,0.043416,0.012092,0.019595,0.000841,-0.058101,0.027493,-0.043402,-0.998679,-0.033414,0.015143,0.002830,-10.181681,-14.695593,-44.604469,,,,,,,5
1508446571.008220,0.027199,0.043489,0.010924,0.018505,0.068810,-0.063382,0.027170,-0.043476,-0.998685,-0.018320,0.004047,0.010831,-10.172795,-14.728739,-44.595562,,,,,,,5
1508446571.028215,0.028946,0.043634,0.009577,0.005708,0.127225,-0.068767,0.028915,-0.043620,-0.998630,-0.014999,0.001170,0.010196,-10.096065,-14.749183,-44.606243,,,,,,,5
1508446571.048239,0.031819,0.043626,0.008249,0.003545,0.183540,-0.065548,0.031783,-0.043612,-0.998543,-0.016936,0.001421,0.010964,-10.046072,-14.757244,-44.614861,,,,,,,5
1508446571.068250,0.035891,0.043767,0.007082,0.023735,0.221814,-0.053640,0.035849,-0.043753,-0.998399,-0.001059,0.001577,0.007356,-9.794471,-14.780516,-44.663074,,,,,,,5
1508446571.088255,0.041001,0.044844,0.005957,0.031198,0.207999,-0.054654,0.040948,-0.044829,-0.998155,0.023642,-0.016100,-0.003218,-9.548901,-14.837768,-44.697258,,,,,,,5
1508446571.108270,0.044519,0.045104,0.004922,0.003529,0.146431,-0.045346,0.044459,-0.045089,-0.997993,0.049413,-0.040894,-0.015892,-9.405080,-14.862619,-44.719490,,,,,,,5
1508446571.128281,0.046286,0.044797,0.004471,-0.024172,0.052028,-0.008380,0.046223,-0.044782,-0.997927,0.050228,-0.037447,-0.013929,-9.327916,-14.870598,-44.732998,,,,,,,5
1508446571.148281,0.046070,0.044163,0.004672,-0.034819,-0.045604,0.019142,0.046009,-0.044148,-0.997965,0.037670,-0.004985,0.000483,-9.236931,-14.848494,-44.759212,,,,,,,5
1508446571.168300,0.044037,0.043567,0.005280,-0.028407,-0.132677,0.030841,0.043981,-0.043554,-0.998083,0.032923,0.002309,0.001119,-9.294070,-14.814799,-44.758545,,,,,,,5
1508446571.188312,0.040524,0.043236,0.005833,-0.010260,-0.196456,0.022425,0.040475,-0.043222,-0.998245,0.005591,0.013453,0.003189,-9.388992,-14.791451,-44.746460,,,,,,,5
1508446571.208313,0.035567,0.043229,0.006248,0.012121,-0.224104,0.018330,0.035526,-0.043216,-0.998434,-0.015308,0.003314,0.005880,-9.615368,-14.774579,-44.703938,,,,,,,5
1508446571.228331,0.031254,0.043618,0.006459,0.019585,-0.202906,0.005630,0.031219,-0.043604,-0.998561,-0.021392,0.002024,0.008845,-9.795218,-14.775483,-44.664577,,,,,,,5
1508446571.248343,0.028120,0.043941,0.006291,0.014263,-0.124372,-0.017778,0.028089,-0.043927,-0.998640,-0.044752,-0.004047,0.021757,-9.981109,-14.791444,-44.618114,,,,,,,5
1508446571.268341,0.027057,0.044150,0.005636,0.008923,-0.009719,-0.041160,0.027027,-0.044136,-0.998660,-0.045627,-0.006615,0.015292,-10.110808,-14.811960,-44.582092,,,,,,,5
1508446571.288362,0.028388,0.044154,0.004518,-0.001743,0.104940,-0.063521,0.028356,-0.044139,-0.998623,-0.047125,-0.007283,0.011517,-10.108156,-14.823704,-44.578793,,,,,,,5
1508446571.308373,0.031640,0.044081,0.003083,-0.000699,0.188824,-0.075161,0.031604,-0.044067,-0.998529,-0.045153,0.000976,-0.001655,-10.009031,-14.836067,-44.597042,,,,,,,5
1508446571.328383,0.036214,0.044227,0.001515,0.016319,0.241914,-0.080304,0.036171,-0.044212,-0.998367,-0.041313,0.003761,0.005020,-9.772623,-14.856052,-44.642796,,,,,,,5
1508446571.348394,0.041497,0.044711,-0.000191,0.033352,0.268441,-0.086532,0.041443,-0.044696,-0.998141,-0.036957,0.004169,0.007616,-9.593302,-14.878896,-44.674072,,,,,,,5
1508446571.368380,0.047474,0.045343,-0.002141,0.048281,0.267329,-0.099187,0.047407,-0.045327,-0.997847,0.011431,0.003961,-0.002535,-9.194267,-14.951593,-44.733665,,,,,,,5
1508446571.388414,0.052530,0.046201,-0.004221,0.047235,0.233331,-0.100286,0.052449,-0.046184,-0.997555,0.027766,0.003811,-0.003803,-8.912292,-15.006845,-44.772213,,,,,,,5
1508446571.408413,0.056726,0.046918,-0.006167,0.038722,0.186630,-0.089744,0.056633,-0.046901,-0.997293,0.032829,0.004421,-0.004279,-8.795154,-15.036366,-44.785473,,,,,,,5
1508446571.428435,0.059825,0.047611,-0.007784,0.042983,0.128256,-0.073782,0.059722,-0.047593,-0.997080,0.041337,0.005234,-0.001837,-8.594567,-15.087244,-44.807301,,,,,,,5
