timestamp(unix),attitude_roll(radians),attitude_pitch(radians),attitude_yaw(radians),rotation_rate_x(radians/s),rotation_rate_y(radians/s),rotation_rate_z(radians/s),gravity_x(G),gravity_y(G),gravity_z(G),user_acc_x(G),user_acc_y(G),user_acc_z(G),magnetic_field_x(microteslas),magnetic_field_y(microteslas),magnetic_field_z(microteslas),latitude(degree),longitude(degree),altitude(meter),speed(m/s),course(degree),timestamp(unix),User Mark
1508446942.522094,-0.169072,1.350705,1.217459,0.110941,-0.281031,0.038041,-0.036736,-0.975878,-0.215206,0.047997,-0.032194,-0.043507,-23.479143,-28.318613,-8.626144,,,,,,,5
1508446942.542107,-0.154803,1.354035,1.200493,-0.000818,-0.111233,-0.029843,-0.033160,-0.976599,-0.212496,0.101428,-0.064966,0.019808,-23.542181,-28.323437,-8.436415,,,,,,,5
,,,,,,,,,,,,,,,,42.293211,-71.264197,60.282120,-1.000000,-1.000000,1508446939.144777,5
1508446942.562117,-0.149244,1.351750,1.190013,-0.196476,-0.333447,-0.112547,-0.032310,-0.976105,-0.214884,0.118156,0.005219,0.117822,-23.405807,-28.452681,-8.380783,,,,,,,5
,,,,,,,,,,,,,,,,42.293313,-71.264177,60.282120,-1.000000,-1.000000,1508446927.131887,5
1508446942.582119,-0.152280,1.347091,1.184671,-0.250990,-0.444427,0.040243,-0.033652,-0.975082,-0.219277,0.080069,0.045837,0.102181,-23.405807,-28.452681,-8.380783,,,,,,,5
,,,,,,,,,,,,,,,,42.293211,-71.264197,60.282120,-1.000000,-1.000000,1508446939.144777,5
1508446942.602122,-0.165913,1.341894,1.188318,-0.242484,-0.549472,0.077499,-0.037475,-0.973916,-0.223793,-0.050569,0.068414,0.046104,-23.489065,-28.409519,-8.293818,,,,,,,5
1508446942.622154,-0.179626,1.337391,1.188165,-0.206038,-0.798319,0.008404,-0.041323,-0.972884,-0.227570,-0.048063,-0.000916,0.042756,-23.689213,-28.304541,-8.080757,,,,,,,5
1508446942.642150,-0.191105,1.333772,1.181280,-0.209009,-0.936726,-0.079034,-0.044601,-0.972041,-0.230537,0.001434,-0.026555,0.045463,-23.755268,-28.288563,-7.941586,,,,,,,5
1508446942.662180,-0.196193,1.329651,1.167786,-0.246213,-0.874216,-0.132532,-0.046554,-0.971065,-0.234234,0.031707,-0.038670,0.097103,-23.896761,-28.300730,-7.459075,,,,,,,5
1508446942.682189,-0.195668,1.325492,1.150568,-0.234459,-0.778790,-0.183470,-0.047216,-0.970063,-0.238218,0.025396,-0.026839,0.118039,-23.928858,-28.325077,-7.261136,,,,,,,5
,,,,,,,,,,,,,,,,42.293139,-71.264216,60.282120,-1.000000,-1.000000,1508446942.654097,5
1508446942.702185,-0.190913,1.322917,1.129730,-0.196019,-0.779025,-0.244908,-0.046556,-0.969435,-0.240891,0.021166,-0.006914,0.145996,-23.935503,-28.365376,-7.079660,,,,,,,5
,,,,,,,,,,,,,,,,42.293133,-71.264223,60.282120,-1.000000,-1.000000,1508446942.662438,5
1508446942.722208,-0.181999,1.319645,1.104005,-0.245953,-0.802565,-0.300705,-0.044981,-0.968627,-0.244415,0.112456,-0.037049,0.101791,-23.880013,-28.510212,-6.673624,,,,,,,5
,,,,,,,,,,,,,,,,42.293127,-71.264229,60.282120,-1.000000,-1.000000,1508446942.674061,5
,,,,,,,,,,,,,,,,42.293121,-71.264236,60.282120,-1.000000,-1.000000,1508446942.689419,5
1508446942.742224,-0.168352,1.314874,1.073603,-0.334229,-0.782549,-0.362109,-0.042415,-0.967430,-0.249559,0.163921,-0.069847,0.062684,-23.825445,-28.595127,-6.503168,,,,,,,5
1508446942.762211,-0.145268,1.309082,1.033734,-0.376548,-0.758660,-0.524281,-0.037454,-0.965948,-0.256011,0.304819,-0.200602,-0.087296,-23.706316,-28.733471,-6.326347,,,,,,,5
1508446942.782236,-0.112575,1.303091,0.984072,-0.375269,-0.791988,-0.637159,-0.029715,-0.964381,-0.262844,0.300284,-0.198599,-0.163578,-23.421543,-29.003212,-6.153808,,,,,,,5
1508446942.802260,-0.080875,1.297301,0.931187,-0.353707,-1.093933,-0.703223,-0.021820,-0.962833,-0.269216,0.307267,-0.175000,-0.164622,-23.144976,-29.266317,-5.951238,,,,,,,5
1508446942.822250,-0.052436,1.289750,0.874034,-0.493928,-1.445789,-0.788761,-0.014537,-0.960766,-0.276980,0.335262,-0.154835,-0.156949,-23.002911,-29.409567,-5.793788,,,,,,,5
1508446942.842285,-0.024085,1.277697,0.811443,-0.721452,-1.663894,-0.916444,-0.006958,-0.957353,-0.288837,0.480881,0.092714,-0.110486,-22.529343,-29.872313,-5.262894,,,,,,,5
1508446942.862281,0.006016,1.261706,0.742009,-0.822193,-1.887526,-1.086739,0.001830,-0.952611,-0.304187,0.476716,0.218739,-0.051496,-22.231478,-30.134560,-5.029317,,,,,,,5
1508446942.882307,0.035095,1.247090,0.669373,-0.603704,-2.074856,-1.156415,0.011161,-0.948063,-0.317887,0.423547,0.418110,0.063324,-21.749140,-30.540838,-4.675090,,,,,,,5
,,,,,,,,,,,,,,,,42.293288,-71.264176,60.388348,-1.000000,-1.000000,1508446942.869615,5
1508446942.902321,0.051674,1.237335,0.603464,-0.357821,-2.433548,-1.011981,0.016906,-0.944915,-0.326879,0.268632,0.369827,0.132482,-21.114185,-31.086504,-3.929996,,,,,,,5
1508446942.922332,0.049708,1.230866,0.550402,-0.237701,-2.655025,-0.836539,0.016567,-0.942778,-0.333010,0.019978,0.159102,0.107195,-20.801350,-31.370405,-3.290284,,,,,,,5
1508446942.942326,0.056860,1.227965,0.492098,0.069730,-2.055007,-0.847389,0.019103,-0.941807,-0.335612,-0.281661,-0.017666,0.353251,-20.761557,-31.320448,-4.401819,,,,,,,5
1508446942.962356,0.062769,1.234808,0.452549,0.481014,-1.402060,-0.592221,0.020681,-0.944085,-0.329053,-0.417959,-0.089240,0.444257,-20.334692,-31.734602,-3.286948,,,,,,,5
1508446942.982367,0.071672,1.238084,0.411415,-0.041374,-1.584065,-0.770224,0.023389,-0.945160,-0.325769,-0.186078,0.039200,0.228036,-20.024948,-32.003391,-2.484553,,,,,,,5
1508446943.002380,0.097232,1.228777,0.353138,-0.521103,-1.382052,-1.097713,0.032559,-0.942079,-0.333806,0.024493,0.110384,0.141728,-20.024948,-32.003391,-2.484553,,,,,,,5
1508446943.022379,0.125616,1.217927,0.292412,-0.270888,-1.562598,-1.045741,0.043298,-0.938385,-0.342869,0.316016,0.218140,-0.092358,-19.170500,-32.558403,-1.957261,,,,,,,5
1508446943.042403,0.135101,1.216505,0.238612,0.212565,-2.320717,-0.862382,0.046728,-0.937893,-0.343764,0.267512,0.163616,-0.121522,-18.251356,-33.118835,-1.191341,,,,,,,5
1508446943.062412,0.128855,1.220668,0.192901,0.330547,-2.490172,-0.696501,0.044078,-0.939329,-0.340175,0.188237,0.115781,-0.133290,-17.994837,-33.273266,-0.681270,,,,,,,5
1508446943.082407,0.117193,1.226346,0.150921,0.401942,-2.643146,-0.685380,0.039483,-0.941261,-0.335363,0.030204,0.085121,-0.074915,-17.278660,-33.643272,0.983270,,,,,,,5
1508446943.102438,0.101094,1.234376,0.106173,0.542682,-3.063871,-0.676018,0.033315,-0.943942,-0.328425,0.025904,0.085315,-0.079717,-16.714468,-33.867413,2.239126,,,,,,,5
1508446943.122435,0.075177,1.246797,0.066699,0.759705,-3.175047,-0.538024,0.023911,-0.947970,-0.317461,-0.017578,0.195162,-0.046003,-16.260530,-34.000118,3.312965,,,,,,,5
1508446943.142445,0.045547,1.264108,0.032045,0.976735,-3.103699,-0.456323,0.013746,-0.953339,-0.301590,-0.035154,0.230896,-0.012817,-15.483332,-34.117481,5.258574,,,,,,,5
1508446943.162471,0.013040,1.285151,-0.000623,1.101377,-3.264152,-0.449027,0.003674,-0.959480,-0.281752,-0.027829,0.234001,-0.037919,-14.978291,-34.130127,6.494138,,,,,,,5
1508446943.182485,-0.025358,1.305503,-0.030702,0.922427,-3.395508,-0.369683,-0.006648,-0.965016,-0.262108,-0.038671,0.077824,-0.288933,-14.399985,-34.111362,7.774568,,,,,,,5
1508446943.202499,-0.064060,1.321626,-0.051645,0.784554,-2.524153,-0.321184,-0.015786,-0.969117,-0.246094,-0.014640,-0.018218,-0.200348,-13.175297,-34.019093,10.025052,,,,,,,5
1508446943.222511,-0.065064,1.340247,-0.092159,0.995650,-1.833930,-0.676673,-0.014857,-0.973541,-0.228028,0.170818,-0.021805,-0.032714,-12.611413,-33.968742,10.884186,,,,,,,5
1508446943.242520,-0.040443,1.365652,-0.151881,1.337332,-1.670418,-0.643937,-0.008236,-0.979032,-0.203542,0.214932,-0.041492,0.090154,-11.960146,-33.921471,11.733596,,,,,,,5
1508446943.262535,-0.049836,1.390310,-0.171414,1.098307,-1.013376,0.075419,-0.008942,-0.983757,-0.179285,0.032761,-0.454918,0.175180,-10.812374,-33.619003,13.573641,,,,,,,5
1508446943.282539,-0.127526,1.405565,-0.087255,0.677327,1.140985,0.908333,-0.020919,-0.986380,-0.163145,-0.688844,-0.299554,0.175520,-11.032345,-33.263435,14.255521,,,,,,,5
1508446943.302557,-0.222675,1.406086,0.045386,-0.125010,1.698680,1.082074,-0.036210,-0.986466,-0.159919,-0.956282,-0.094802,0.185660,-11.547887,-33.067795,14.302302,,,,,,,5
1508446943.322570,-0.227159,1.405690,0.070084,0.295606,0.571288,-0.445345,-0.037015,-0.986401,-0.160135,-0.371325,0.037426,-0.030859,-12.715205,-32.809692,13.900949,,,,,,,5
1508446943.342581,-0.182830,1.417066,0.004812,0.488614,-2.170657,-0.435177,-0.027840,-0.988207,-0.150573,0.576256,0.152834,0.229965,-12.418424,-32.828899,14.122143,,,,,,,5
1508446943.362583,-0.309470,1.433515,0.061920,1.263930,-3.886432,0.561202,-0.041678,-0.990592,-0.130349,0.696143,0.147040,0.371682,-12.418424,-32.828899,14.122143,,,,,,,5
1508446943.382609,-0.598169,1.458130,0.291367,1.828205,-2.321269,0.745920,-0.063312,-0.993660,-0.092907,0.567126,0.167549,0.190640,-10.815599,-31.963417,17.109983,,,,,,,5
1508446943.402617,-0.916462,1.472715,0.577006,1.339607,-1.456317,0.429507,-0.077698,-0.995194,-0.059600,0.274247,0.101059,0.127273,-10.552473,-31.221937,18.580221,,,,,,,5
1508446943.422611,-1.142651,1.482421,0.777496,0.902933,-1.383669,-0.126645,-0.080294,-0.996097,-0.036644,-0.044294,-0.128567,0.178170,-10.294788,-30.833315,19.357494,,,,,,,5
1508446943.442633,-1.348368,1.492572,0.948703,0.850227,-1.967342,-0.263809,-0.076219,-0.996942,-0.017239,-0.080305,-0.151053,0.174572,-9.389514,-30.440992,20.410088,,,,,,,5
1508446943.462653,-1.637051,1.497735,1.196649,1.007607,-2.057227,-0.122032,-0.072836,-0.997332,0.004833,-0.081644,-0.096296,0.195881,-8.401972,-30.098948,21.327187,,,,,,,5
1508446943.482640,-1.943318,1.493198,1.465734,1.034811,-1.778230,0.072187,-0.072203,-0.996991,0.028215,-0.100465,0.036160,0.255172,-7.717992,-29.774916,22.028973,,,,,,,5
1508446943.502665,-2.169053,1.481143,1.660204,0.952513,-1.531346,0.180299,-0.073983,-0.995984,0.050425,-0.187111,0.114789,0.130208,-6.837266,-29.179323,23.091286,,,,,,,5
1508446943.522688,-2.286717,1.471052,1.739167,0.091659,-2.720567,0.219142,-0.075131,-0.995030,0.065355,-0.231738,0.098591,0.029753,-6.362367,-28.850929,23.633299,,,,,,,5
1508446943.542698,-2.250030,1.469153,1.657127,-0.014542,-1.010285,0.182293,-0.078948,-0.994839,0.063742,-0.129380,-0.098972,0.098016,-5.523989,-28.795424,23.910202,,,,,,,5
1508446943.562693,-2.268303,1.470270,1.660677,-0.014136,-0.977136,-0.059376,-0.076918,-0.994951,0.064460,-0.002427,-0.026777,-0.260566,-4.723846,-28.854568,24.010160,,,,,,,5
1508446943.582724,-2.298540,1.466137,1.665621,0.295518,-1.298488,0.139915,-0.078004,-0.994528,0.069491,0.036576,0.041663,-0.135821,-4.329972,-28.838411,24.103653,,,,,,,5
1508446943.602734,-2.397100,1.461248,1.737134,0.488803,-1.415401,-0.150318,-0.074081,-0.994006,0.080404,-0.081360,0.177935,0.005823,-3.908491,-28.725254,24.309916,,,,,,,5
1508446943.622749,-2.508182,1.454957,1.823463,0.601557,-1.130822,-0.169402,-0.068412,-0.993298,0.093160,-0.229775,0.022732,-0.006093,-2.782152,-28.371368,24.873957,,,,,,,5
1508446943.642738,-2.610446,1.443596,1.906933,0.838710,-0.926610,-0.064010,-0.064256,-0.991921,0.109380,-0.290343,-0.023277,-0.018697,-2.324821,-28.128525,25.194641,,,,,,,5
1508446943.662770,-2.695690,1.426597,1.976602,1.055692,-0.686426,-0.003476,-0.061974,-0.989621,0.129649,-0.195167,-0.022311,0.099675,-1.831372,-27.690563,25.715120,,,,,,,5
1508446943.682785,-2.776465,1.404675,2.048755,1.320932,-0.398136,-0.153327,-0.059044,-0.986234,0.154458,-0.004280,-0.003055,0.074439,-1.419414,-26.956177,26.509212,,,,,,,5
1508446943.702795,-2.864565,1.379234,2.130235,1.488460,-0.421237,-0.354263,-0.052072,-0.981708,0.183133,0.097101,0.001834,0.026751,-1.084352,-26.213125,27.259583,,,,,,,5
1508446943.722806,-2.946320,1.351315,2.203042,1.539727,-0.579711,-0.399744,-0.042246,-0.976011,0.213585,0.106577,-0.022464,-0.013314,-0.867754,-25.804485,27.654373,,,,,,,5
1508446943.742820,-3.010304,1.322559,2.255663,1.493904,-0.667693,-0.352275,-0.032165,-0.969347,0.243581,0.052138,-0.078901,-0.107335,-0.077693,-24.513538,28.817860,,,,,,,5
1508446943.762831,-3.060810,1.294234,2.294160,1.445973,-0.676123,-0.339900,-0.022034,-0.962000,0.272160,-0.000717,-0.053290,-0.347066,0.478145,-23.652718,29.524717,,,,,,,5
1508446943.782827,-3.104043,1.265171,2.319912,1.530185,-1.136953,-0.263957,-0.011296,-0.953659,0.300678,-0.030376,0.001282,-0.397403,0.478145,-23.652718,29.524717,,,,,,,5
1508446943.802836,3.128186,1.232495,2.339581,1.682904,-1.885088,-0.313305,0.004449,-0.943320,0.331855,-0.029672,0.018119,-0.298515,1.537821,-22.305672,30.520174,,,,,,,5
1508446943.822867,3.072895,1.198840,2.355899,1.624458,-1.925614,-0.367055,0.024948,-0.931618,0.362582,0.006485,-0.166420,-0.266588,3.483835,-20.727371,31.458351,,,,,,,5
1508446943.842868,3.030429,1.170748,2.367592,1.181173,-1.396167,-0.318141,0.043205,-0.921042,0.387058,-0.003578,-0.270562,-0.354878,3.483835,-20.727371,31.458351,,,,,,,5
1508446943.862866,3.003198,1.153031,2.370570,0.671686,-1.215467,-0.062413,0.055970,-0.913998,0.401840,-0.050782,-0.408024,-0.733993,5.619479,-19.088913,32.177998,,,,,,,5
1508446943.882902,2.980899,1.146318,2.365851,0.197749,-1.395383,0.060244,0.065896,-0.911254,0.406539,-0.080179,-0.351487,-0.794754,6.230252,-18.834398,32.215492,,,,,,,5
1508446943.902892,2.955431,1.146203,2.360344,-0.103672,-1.522381,0.152422,0.076247,-0.911206,0.404833,-0.185363,-0.412341,-0.798555,7.127125,-18.734407,32.087608,,,,,,,5
1508446943.922922,2.932137,1.158864,2.357873,-0.930043,-1.025014,0.083157,0.083250,-0.916349,0.391630,-0.241346,-0.626315,-0.872129,8.187947,-19.026426,31.659775,,,,,,,5
1508446943.942937,2.900055,1.193183,2.376516,-2.332479,-0.664174,0.073983,0.088192,-0.929547,0.358000,-0.243115,-0.686542,-0.995466,8.592192,-19.610518,31.192795,,,,,,,5
1508446943.962949,2.851005,1.256405,2.414369,-3.614733,-0.670327,0.246530,0.088601,-0.950985,0.296273,-0.187875,-0.689442,-0.985223,8.879334,-20.698772,30.399128,,,,,,,5
1508446943.982963,2.765128,1.326990,2.492515,-3.571976,-0.419164,0.078843,0.088746,-0.970426,0.224493,0.384597,-0.329348,-0.325430,0.903074,-27.119610,20.677450,,,,,,,5
1508446944.002967,2.619961,1.384717,2.627261,-2.999502,-1.002452,-0.157505,0.092188,-0.982737,0.160403,0.583654,-0.306386,0.026930,1.024385,-28.148165,19.247784,,,,,,,5
1508446944.022984,2.373453,1.423618,2.838507,-2.359846,-2.493365,-0.192748,0.101891,-0.989189,0.105470,0.563560,-0.425545,0.278197,1.374750,-28.981310,17.945461,,,,,,,5
1508446944.042997,2.077384,1.452409,3.070011,-1.981356,-3.688498,0.468550,0.103277,-0.993000,0.057307,0.464167,-0.619182,0.557607,2.758975,-30.150557,15.721889,,,,,,,5
1508446944.062991,1.668209,1.484296,-2.867910,-2.277266,-2.683485,1.347411,0.085982,-0.996261,0.008402,0.263917,-0.423996,0.677999,3.354444,-30.817507,14.243406,,,,,,,5
1508446944.083020,0.874754,1.499363,-2.099596,-2.822729,-0.636436,1.549952,0.054771,-0.997450,-0.045763,0.119637,-0.314623,0.659716,3.249379,-31.188499,13.437437,,,,,,,5
1508446944.103033,0.269924,1.460274,-1.493020,-3.090650,0.191768,1.087332,0.029412,-0.993899,-0.106304,-0.096077,-0.060301,0.047054,2.096832,-32.337944,10.663318,,,,,,,5
1508446944.123045,0.061984,1.405271,-1.278984,-2.766797,0.140316,1.004787,0.010207,-0.986332,-0.164454,0.217897,-0.144329,0.053889,1.389374,-32.958542,8.697695,,,,,,,5
1508446944.143040,-0.046745,1.357785,-1.170911,-2.188374,-0.272293,0.970919,-0.009878,-0.977399,-0.211173,0.254309,-0.083942,0.229728,1.389374,-32.958542,8.697695,,,,,,,5
1508446944.163065,-0.110986,1.314249,-1.112118,-2.143246,-0.383507,0.768906,-0.028104,-0.967272,-0.252182,0.342038,0.193178,0.447067,0.425882,-33.525581,6.300768,,,,,,,5
1508446944.183080,-0.143036,1.267444,-1.087225,-2.340922,-0.417033,0.569206,-0.042582,-0.954340,-0.295671,0.397593,0.305766,0.445253,-0.265654,-33.868069,4.090130,,,,,,,5
1508446944.203081,-0.159467,1.219906,-1.078633,-2.281119,-0.394072,0.461113,-0.054582,-0.939067,-0.339372,0.378435,0.325130,0.466188,-0.437337,-33.952930,3.294390,,,,,,,5
1508446944.223093,-0.167883,1.177728,-1.073620,-1.893602,0.014467,0.394327,-0.064002,-0.923738,-0.377640,0.060111,0.350374,0.478058,-0.888964,-34.087940,1.033377,,,,,,,5
1508446944.243116,-0.159505,1.144428,-1.073170,-1.518828,0.683964,0.212661,-0.065687,-0.910474,-0.408317,-0.018450,0.341748,0.514305,-1.069430,-34.098213,0.118873,,,,,,,5
1508446944.263108,-0.136041,1.117253,-1.077173,-1.239837,1.157090,0.061999,-0.059423,-0.898900,-0.434105,-0.095667,0.325658,0.592537,-1.175486,-34.088310,-0.671550,,,,,,,5
1508446944.283140,-0.096812,1.098105,-1.086000,-0.847978,1.802071,-0.140840,-0.044008,-0.890346,-0.453152,0.066560,0.300671,0.670498,-1.140314,-34.042519,-1.911142,,,,,,,5
1508446944.303153,-0.052926,1.083932,-1.092197,-0.608601,1.901024,-0.059998,-0.024750,-0.883804,-0.467202,0.110657,0.322678,0.662346,-1.017098,-34.018852,-2.351410,,,,,,,5
1508446944.323163,-0.019891,1.077642,-1.095695,-0.088698,1.174228,-0.027508,-0.009416,-0.880844,-0.473313,0.168245,0.356644,0.638672,-0.909873,-33.997314,-2.683355,,,,,,,5
1508446944.343149,-0.010299,1.084605,-1.090250,0.533203,0.202660,0.199423,-0.004812,-0.884119,-0.467237,0.232428,0.420145,0.418729,-0.831619,-33.998062,-2.699214,,,,,,,5
1508446944.363166,-0.036813,1.102658,-1.072813,1.112518,-0.983270,0.485465,-0.016607,-0.892410,-0.450920,0.153952,0.423004,0.250710,-0.973457,-34.020538,-2.345467,,,,,,,5
1508446944.383198,-0.096833,1.127462,-1.043361,1.357785,-2.095299,0.588864,-0.041472,-0.903327,-0.426944,0.129363,0.348700,0.102924,-1.248717,-34.046551,-1.766042,,,,,,,5
1508446944.403211,-0.189545,1.156328,-1.003521,1.707564,-3.257597,0.611103,-0.075874,-0.915330,-0.395491,0.080391,0.032594,-0.508714,-1.921614,-34.060265,-0.227079,,,,,,,5
1508446944.423223,-0.307204,1.188791,-0.961104,1.511766,-3.962411,0.138337,-0.112727,-0.927919,-0.355330,0.150249,-0.240569,-1.146593,-2.239120,-34.021469,1.171288,,,,,,,5
1508446944.443234,-0.340681,1.199296,-0.961547,0.075538,-0.419359,-0.331874,-0.121293,-0.931784,-0.342151,0.059739,-0.210398,-1.076200,-2.202766,-34.002426,1.681841,,,,,,,5
1508446944.463247,-0.300788,1.201691,-0.989718,0.027184,1.017446,-0.490898,-0.106889,-0.932651,-0.344583,-0.301787,-0.010800,-0.455298,-1.805374,-34.018242,1.829155,,,,,,,5
1508446944.483258,-0.280715,1.208210,-0.989422,0.462615,1.009893,0.148343,-0.098265,-0.934983,-0.340810,-0.213655,-0.243057,-0.118648,-1.674771,-34.019173,1.933102,,,,,,,5
1508446944.503269,-0.281570,1.223325,-0.959598,1.172306,1.577227,0.269622,-0.094619,-0.940237,-0.327112,-0.217302,-0.237803,-0.132345,-1.674771,-34.019173,1.933102,,,,,,,5
1508446944.523264,-0.274264,1.250097,-0.937001,1.344651,1.207035,-0.150874,-0.085377,-0.949015,-0.303449,0.359684,-0.690160,0.593595,-2.051330,-33.901443,3.214022,,,,,,,5
1508446944.543294,-0.277749,1.268179,-0.915473,0.740447,0.768974,0.255864,-0.081714,-0.954560,-0.286598,-0.001583,-0.587905,0.010170,-2.098948,-33.823402,3.926505,,,,,,,5
1508446944.563296,-0.289978,1.274446,-0.875874,0.331645,1.768791,0.543921,-0.083501,-0.956409,-0.279839,-0.067485,-0.472867,-0.298316,-2.235607,-33.789379,4.138325,,,,,,,5
1508446944.583292,-0.276613,1.280171,-0.846106,0.471785,1.885201,0.134174,-0.078257,-0.958065,-0.275659,0.671732,0.113140,-0.137870,-2.927487,-33.704033,4.394749,,,,,,,5
1508446944.603330,-0.256100,1.290662,-0.853147,0.497079,-0.005488,-0.394095,-0.070036,-0.961018,-0.267467,0.645857,0.266087,0.137203,-3.007941,-33.673416,4.571542,,,,,,,5
1508446944.623340,-0.257224,1.307563,-0.865725,1.034074,-0.918126,-0.340310,-0.066195,-0.965554,-0.251643,0.314532,0.379494,0.752086,-2.819693,-33.653866,4.828306,,,,,,,5
1508446944.643351,-0.287480,1.338045,-0.857974,1.731544,-1.153157,-0.308112,-0.065399,-0.973035,-0.221190,0.179016,0.339323,0.707442,-3.759464,-29.372910,6.397360,,,,,,,5
1508446944.663368,-0.332746,1.376831,-0.830645,1.990106,-0.802731,-0.309971,-0.062960,-0.981248,-0.182179,-0.076475,0.139832,0.372853,-3.433098,-29.134422,7.564849,,,,,,,5
1508446944.683375,-0.409137,1.413332,-0.768234,1.802213,-0.751756,-0.039974,-0.062383,-0.987628,-0.143871,-0.294153,-0.047452,0.180432,-3.181695,-28.831770,8.742623,,,,,,,5
1508446944.703379,-0.542585,1.443010,-0.649938,1.680625,-0.879693,0.114378,-0.065803,-0.991846,-0.109136,-0.206978,-0.053350,0.105718,-3.053324,-28.508968,9.784863,,,,,,,5
1508446944.723393,-0.764863,1.469578,-0.446644,1.831985,-1.113583,0.086703,-0.069968,-0.994882,-0.072902,0.044059,-0.045829,0.026073,-2.965083,-28.244040,10.550361,,,,,,,5
1508446944.743411,-1.168192,1.493770,-0.069844,2.163676,-1.561663,-0.102552,-0.070798,-0.997035,-0.030150,0.227368,-0.016286,-0.061051,-2.815185,-27.938099,11.373876,,,,,,,5
1508446944.763426,-1.785553,1.502370,0.517845,2.066018,-1.484734,-0.294954,-0.066802,-0.997660,0.014571,0.215499,0.122675,-0.024565,-2.154606,-27.162491,13.243275,,,,,,,5
1508446944.783437,-2.352735,1.491594,1.060725,1.965246,-1.173427,-0.601132,-0.056139,-0.996865,0.055752,-0.176161,0.281106,0.030292,-1.556155,-26.622465,14.375335,,,,,,,5
1508446944.803448,-2.742733,1.465646,1.435214,2.000383,-0.709670,-0.733584,-0.040762,-0.994477,0.096718,-0.297953,0.266922,0.029930,-1.226484,-26.341089,14.915441,,,,,,,5
1508446944.823461,-2.936840,1.435054,1.620457,1.606910,-0.323059,-0.511879,-0.027515,-0.990801,0.132499,-0.112683,-0.089536,-0.012214,-0.377772,-25.448339,16.433714,,,,,,,5
1508446944.843473,-3.006714,1.408265,1.690793,1.343102,0.049096,-0.151762,-0.021759,-0.986821,0.160347,-0.071182,-0.013393,0.095360,-0.150600,-24.954950,17.177179,,,,,,,5
1508446944.863465,-3.028058,1.380410,1.711711,1.495065,-0.060766,0.048517,-0.021439,-0.981931,0.188020,-0.073929,0.043592,0.119735,-0.127250,-24.722168,17.510735,,,,,,,5
1508446944.883494,-3.040732,1.346378,1.722179,1.838961,-0.174469,0.090665,-0.022407,-0.974924,0.221409,-0.053368,0.109796,0.067364,-0.120323,-24.198570,18.227514,,,,,,,5
1508446944.903508,-3.055723,1.306527,1.732412,2.024445,-0.308722,0.004785,-0.022402,-0.965284,0.260241,0.061754,0.050550,-0.070056,-0.070378,-23.141491,19.552341,,,,,,,5
1508446944.923522,-3.083250,1.267216,1.747288,1.928018,-1.007917,-0.061489,-0.017431,-0.954272,0.298430,0.115560,-0.028363,-0.115553,0.002858,-22.742163,20.015533,,,,,,,5
1508446944.943512,-3.116692,1.228535,1.754334,1.966483,-1.421038,-0.019958,-0.008356,-0.941998,0.335514,0.234110,-0.048068,-0.120075,0.680900,-21.535854,21.297207,,,,,,,5
1508446944.963544,3.138521,1.189316,1.754434,1.938653,-1.340074,0.040563,0.001143,-0.928115,0.372293,0.194383,-0.056428,-0.234857,1.292834,-20.681767,22.100243,,,,,,,5
1508446944.983555,3.115873,1.150928,1.752943,1.907813,-1.119387,-0.043639,0.010483,-0.913143,0.407505,-0.020523,-0.149723,-0.442493,1.848394,-19.816166,22.841425,,,,,,,5
1508446945.003569,3.092561,1.114352,1.757040,1.748270,-0.894652,-0.204498,0.021602,-0.897625,0.440229,-0.176281,-0.323276,-0.592756,2.373353,-18.946875,23.520433,,,,,,,5
1508446945.023566,3.071761,1.084488,1.760882,1.248803,-0.920717,-0.139432,0.032610,-0.884064,0.466226,-0.164584,-0.593154,-0.779809,2.854851,-18.170332,24.073147,,,,,,,5
1508446945.043589,3.051409,1.071690,1.761746,0.212634,-1.020651,-0.013903,0.043107,-0.878011,0.476696,-0.070878,-0.719402,-0.845303,3.229066,-17.793871,24.305946,,,,,,,5
1508446945.063604,3.035396,1.080449,1.758486,-0.748162,-0.818774,0.154002,0.049917,-0.882169,0.468280,0.021234,-0.378573,-0.788455,3.808835,-17.827309,24.197260,,,,,,,5
1508446945.083595,3.020397,1.108155,1.761817,-1.862878,-0.499952,0.020467,0.053959,-0.894877,0.443040,-0.022083,-0.362463,-1.024018,4.094058,-18.366768,23.742960,,,,,,,5
1508446945.103626,3.009572,1.152001,1.780042,-2.371981,0.370866,-0.140660,0.053532,-0.913579,0.403122,-0.085514,-0.488215,-1.169448,4.168516,-18.828876,23.365028,,,,,,,5
1508446945.123640,2.961825,1.197634,1.817722,-2.324609,-1.191337,-0.601419,0.065184,-0.931179,0.358687,0.080278,-0.456943,-0.869429,4.304619,-20.388588,21.990986,,,,,,,5
1508446945.143650,2.851942,1.240877,1.902486,-2.524945,-1.571907,-1.007964,0.092531,-0.946069,0.310471,0.169493,-0.250922,-0.272355,5.252646,-21.335268,20.857700,,,,,,,5
1508446945.163661,2.720258,1.282946,2.011252,-2.507623,-1.259406,-0.651960,0.116106,-0.958856,0.259063,0.122191,-0.318854,0.064240,5.784118,-21.802841,20.223940,,,,,,,5
1508446945.183676,2.605277,1.322941,2.110695,-2.319573,-0.746087,0.044194,0.125355,-0.969441,0.210881,-0.175114,-0.885067,0.716365,6.848066,-23.126371,18.333099,,,,,,,5
1508446945.203685,2.532031,1.373695,2.179418,-2.788272,-0.042843,1.181198,0.112113,-0.980638,0.160559,-0.604209,-0.799757,0.388956,6.806148,-24.048304,17.122589,,,,,,,5
1508446945.223698,2.417176,1.444088,2.303970,-3.720456,0.584859,1.304942,0.083745,-0.991983,0.094636,-0.684636,-0.491476,0.072814,6.806148,-24.048304,17.122589,,,,,,,5
1508446945.243693,1.916047,1.503263,2.827539,-3.511193,1.198133,0.823716,0.063500,-0.997721,0.022838,-0.357628,-0.240713,-0.084529,5.641656,-25.895874,14.676615,,,,,,,5
1508446945.263722,0.945813,1.509473,-2.460569,-2.761063,0.970589,0.575262,0.049701,-0.998120,-0.035857,0.215085,-0.430957,0.231292,4.522857,-27.374672,12.165474,,,,,,,5
1508446945.283726,0.417075,1.469354,-1.914722,-3.004554,0.823591,0.425142,0.041023,-0.994859,-0.092588,0.365822,-0.399565,0.488599,4.522857,-27.374672,12.165474,,,,,,,5
1508446945.303737,0.218140,1.412194,-1.699301,-3.099350,0.617822,0.502995,0.034180,-0.987449,-0.154196,0.372940,-0.066338,0.446813,3.655039,-28.707035,8.965182,,,,,,,5
1508446945.323757,0.098049,1.360382,-1.573604,-2.487390,-0.099381,0.862064,0.020446,-0.977944,-0.207862,0.061356,0.232766,0.444922,3.225645,-29.221476,7.316294,,,,,,,5
1508446945.343768,0.004212,1.317841,-1.482788,-2.057253,-0.282105,0.926166,0.001054,-0.968177,-0.250264,-0.023469,0.310264,0.530217,2.975526,-29.416883,6.604609,,,,,,,5
1508446945.363783,-0.055427,1.277020,-1.421984,-2.005122,0.111682,0.837456,-0.016042,-0.957157,-0.289125,-0.065120,0.305958,0.630174,2.200538,-29.840649,4.745619,,,,,,,5
1508446945.383789,-0.084977,1.236900,-1.382201,-1.921022,0.599852,0.706491,-0.027816,-0.944772,-0.326544,-0.018571,0.249506,0.645957,1.824996,-29.993286,3.860015,,,,,,,5
1508446945.403804,-0.090520,1.199228,-1.355217,-1.765673,1.240985,0.582618,-0.032821,-0.931759,-0.361591,0.001189,0.244946,0.674976,1.475672,-30.109756,3.008746,,,,,,,5
1508446945.423818,-0.079061,1.165228,-1.334549,-1.593300,1.701718,0.517311,-0.031160,-0.918878,-0.393309,-0.000959,0.348489,0.705290,0.869382,-30.247559,1.468671,,,,,,,5
1508446945.443824,-0.061149,1.134444,-1.315490,-1.448447,1.699424,0.490821,-0.025828,-0.906299,-0.421847,0.027811,0.395038,0.729693,0.609428,-30.279503,0.779659,,,,,,,5
1508446945.463839,-0.051768,1.110037,-1.294522,-0.971291,1.193708,0.549744,-0.023007,-0.895715,-0.444032,0.071897,0.410516,0.738268,0.373996,-30.293051,0.136933,,,,,,,5
1508446945.483853,-0.059631,1.099453,-1.271272,-0.222290,0.292388,0.530756,-0.027062,-0.890959,-0.453277,0.186485,0.502531,0.645949,-0.112830,-30.288689,-0.640406,,,,,,,5
1508446945.503852,-0.079846,1.103180,-1.251992,0.475761,-0.386353,0.358193,-0.035953,-0.892645,-0.449324,0.243641,0.514090,0.570784,-0.333963,-30.286602,-0.661722,,,,,,,5
1508446945.523876,-0.111292,1.120033,-1.235176,1.089603,-1.058495,0.237112,-0.048385,-0.900115,-0.432958,0.278609,0.468810,0.427190,-0.501761,-30.288269,-0.443412,,,,,,,5
1508446945.543891,-0.143851,1.146152,-1.224999,1.429893,-1.107704,-0.112547,-0.059062,-0.911185,-0.407741,0.218562,0.282218,0.195110,-0.670735,-30.282455,0.592165,,,,,,,5
1508446945.563900,-0.156853,1.176726,-1.230078,1.469578,-0.811146,-0.362210,-0.059977,-0.923354,-0.379237,-0.036932,-0.224504,-0.574590,-0.489642,-30.254383,1.503386,,,,,,,5
1508446945.583897,-0.172081,1.198033,-1.224328,0.705976,-0.223497,0.180275,-0.062361,-0.931324,-0.358812,-0.395143,-0.593471,-1.167952,-0.347101,-30.219357,2.120749,,,,,,,5
1508446945.603922,-0.195686,1.200724,-1.193596,0.091534,0.464704,0.639952,-0.070325,-0.932301,-0.354780,-0.527270,-0.422405,-0.734957,-0.592744,-30.186203,2.503902,,,,,,,5
1508446945.623920,-0.213643,1.202379,-1.159235,0.335348,0.884864,0.527290,-0.076357,-0.932899,-0.351951,-0.365324,-0.100243,-0.379799,-0.996560,-30.168934,2.582626,,,,,,,5
1508446945.643935,-0.214182,1.208560,-1.129874,0.347933,1.633435,0.422550,-0.075320,-0.935107,-0.346269,-0.103803,-0.010969,-0.239760,-1.174597,-30.153378,2.687326,,,,,,,5
1508446945.663950,-0.192714,1.211194,-1.106659,0.291349,2.432906,0.281076,-0.067398,-0.936037,-0.345388,-0.018189,0.071169,0.130483,-1.703104,-30.110390,2.879512,,,,,,,5
1508446945.683971,-0.149377,1.228334,-1.110456,1.194177,1.286400,-0.564134,-0.049975,-0.941931,-0.332068,0.161868,0.024618,0.722159,-1.842062,-30.073536,3.164960,,,,,,,5
1508446945.703983,-0.104052,1.264781,-1.170371,1.931598,-1.366286,-1.375647,-0.031290,-0.953542,-0.299632,0.419840,-0.514049,0.857707,-1.481982,-30.021446,3.787368,,,,,,,5
1508446945.723996,-0.076280,1.292188,-1.200573,0.416689,1.391268,0.141842,-0.020958,-0.961439,-0.274219,0.579979,-1.138628,-0.728208,-0.632104,-29.857052,5.097494,,,,,,,5
1508446945.743982,-0.044787,1.268544,-1.166490,-1.500754,3.442336,0.678038,-0.013327,-0.954669,-0.297372,0.634467,-0.303312,-0.262579,-0.974530,-29.882124,4.892506,,,,,,,5
1508446945.764018,-0.061635,1.259283,-1.123371,0.376545,-0.421990,0.479793,-0.018879,-0.951871,-0.305917,0.530430,0.052930,0.222665,-1.503377,-29.965193,4.201752,,,,,,,5
1508446945.784031,-0.116507,1.285273,-1.115887,1.669516,-3.053250,-0.196155,-0.032741,-0.959514,-0.279751,-0.172673,0.610958,1.049511,-1.720290,-29.880138,4.695261,,,,,,,5
1508446945.804018,-0.161458,1.325221,-1.119384,2.123902,-1.628744,-0.454319,-0.039082,-0.969998,-0.239952,-0.142177,0.581311,1.231560,-1.388887,-29.747122,5.568421,,,,,,,5
1508446945.824054,-0.133737,1.372357,-1.145946,2.333824,1.032482,-0.701853,-0.026286,-0.980375,-0.195380,-0.114415,0.414717,1.128653,-1.043182,-29.562523,6.541915,,,,,,,5
1508446945.844067,-0.050544,1.417484,-1.197203,2.060803,1.595992,-0.607854,-0.007715,-0.988271,-0.152517,-0.166937,-0.144496,0.063528,-0.698238,-29.062870,8.525826,,,,,,,5
1508446945.864078,0.014643,1.453849,-1.250251,1.732917,0.044477,-0.196483,0.001708,-0.993169,-0.116669,-0.240646,-0.359949,-0.322189,-0.627079,-28.808315,9.354963,,,,,,,5
1508446945.884090,-0.007453,1.488678,-1.238837,1.742246,-0.709584,0.163972,-0.000611,-0.996630,-0.082024,-0.201217,-0.317030,-0.157325,-0.549639,-28.555855,10.103892,,,,,,,5
1508446945.904105,-0.096667,1.523259,-1.160539,1.749632,-0.401686,0.114223,-0.004586,-0.998870,-0.047298,0.098336,0.093765,0.047984,-0.470793,-27.987684,11.588599,,,,,,,5
1508446945.924114,-0.269449,1.559752,-0.990448,1.894804,0.012463,-0.213272,-0.002940,-0.999939,-0.010646,0.030558,0.208923,0.049098,-0.410245,-27.553289,12.588707,,,,,,,5
1508446945.944126,3.005679,1.541615,2.022818,1.983352,0.368655,-0.414573,0.003953,-0.999574,0.028908,-0.029588,0.212953,0.047401,-0.410245,-27.553289,12.588707,,,,,,,5
1508446945.964121,2.957413,1.504219,2.081033,1.735201,0.589660,-0.440943,0.012184,-0.997785,0.065403,-0.098793,0.329724,0.157436,-0.187770,-26.510273,14.662800,,,,,,,5
1508446945.984149,2.925275,1.470041,2.124413,1.599191,0.453335,-0.560356,0.021589,-0.994928,0.098241,-0.037916,0.202494,0.104366,-0.109772,-26.006552,15.539463,,,,,,,5
1508446946.004154,2.893712,1.435348,2.158380,1.705984,-0.114075,-0.580133,0.033131,-0.990841,0.130907,0.084774,-0.040714,0.035551,0.039132,-25.625679,16.160156,,,,,,,5
1508446946.024174,2.899690,1.396677,2.142792,2.022825,-0.675810,-0.160563,0.041500,-0.984879,0.168197,0.130665,-0.156356,0.004777,0.283945,-25.200449,16.813219,,,,,,,5
1508446946.044186,2.941207,1.355353,2.081396,2.210766,-1.048436,0.243180,0.042552,-0.976882,0.209503,0.082631,-0.029222,-0.031174,0.742798,-24.127140,18.307293,,,,,,,5
1508446946.064182,2.968720,1.311189,2.029859,2.303714,-1.141446,0.089489,0.044156,-0.966491,0.252875,0.084201,0.038100,-0.057227,0.882607,-23.714884,18.832228,,,,,,,5
1508446946.084210,2.960157,1.265404,2.015369,2.271533,-1.116549,-0.389893,0.054253,-0.953729,0.295732,0.144218,0.073724,-0.041231,1.541070,-22.365278,20.377613,,,,,,,5
1508446946.104199,2.929328,1.219187,2.024723,2.208137,-1.094144,-0.675751,0.072558,-0.938820,0.336679,0.050244,-0.023461,-0.191034,2.047516,-21.648987,21.093994,,,,,,,5
1508446946.124231,2.899901,1.174746,2.030931,2.088673,-1.268766,-0.504380,0.092334,-0.922592,0.374565,-0.019321,-0.139512,-0.331413,2.613940,-20.916130,21.760296,,,,,,,5
1508446946.144246,2.880083,1.135779,2.023744,1.775309,-1.280678,-0.313192,0.108955,-0.906863,0.407098,-0.083351,-0.460706,-0.489434,3.751343,-19.499386,22.880754,,,,,,,5
1508446946.164253,2.862378,1.109171,2.019237,1.006234,-0.958052,-0.218146,0.122754,-0.895330,0.428155,-0.075421,-0.526011,-0.574975,4.401035,-18.782194,23.359959,,,,,,,5
1508446946.184267,2.843134,1.093917,2.019089,0.623008,-1.087490,-0.228860,0.134970,-0.888432,0.438717,-0.162406,-0.395458,-0.749172,4.784897,-18.460550,23.540188,,,,,,,5
1508446946.204282,2.814361,1.085455,2.023400,0.182198,-1.168965,-0.202748,0.149947,-0.884516,0.441755,-0.264663,-0.401373,-0.740095,5.583055,-18.121927,23.627377,,,,,,,5
1508446946.224293,2.793652,1.090223,2.032272,-0.591392,-0.358648,-0.078646,0.157623,-0.886730,0.434586,-0.178939,-0.626331,-0.799454,6.034474,-18.151917,23.492992,,,,,,,5
1508446946.244302,2.761153,1.104085,2.052720,-0.811064,-1.159128,-0.267395,0.167080,-0.893053,0.417781,-0.197079,-0.578215,-0.861812,6.135972,-18.303684,23.348503,,,,,,,5
1508446946.264292,2.702635,1.121129,2.081248,-1.350744,-1.729037,-0.188166,0.184731,-0.900592,0.393458,-0.477059,-0.608670,-0.855952,7.111485,-18.864573,22.613764,,,,,,,5
1508446946.284328,2.634192,1.159206,2.133333,-2.660186,-0.494474,-0.044718,0.194396,-0.916486,0.349663,-0.256789,-0.584445,-0.541131,7.663298,-19.413666,21.959305,,,,,,,5
1508446946.304325,2.558517,1.211380,2.216968,-3.131308,0.222077,0.038180,0.193659,-0.936102,0.293613,0.050482,-0.354761,-0.225131,7.843178,-20.259993,21.115040,,,,,,,5
1508446946.324351,2.463059,1.260284,2.320165,-2.868355,0.003396,0.123235,0.191777,-0.952177,0.237866,0.036159,-0.464617,0.361209,7.759968,-21.531956,19.849066,,,,,,,5
1508446946.344364,2.343143,1.303176,2.436355,-2.591536,-0.717322,0.337924,0.189410,-0.964403,0.184529,-0.008426,-0.793105,0.414027,7.744572,-23.168966,17.917820,,,,,,,5
1508446946.364353,2.212025,1.352115,2.554100,-2.751762,-0.694978,1.234198,0.173849,-0.976184,0.129771,-0.034201,-0.702206,0.408544,7.744572,-23.168966,17.917820,,,,,,,5
1508446946.384385,2.008559,1.408225,2.756808,-3.271002,0.012458,1.437007,0.146593,-0.986814,0.068613,-0.044085,-0.409166,0.009039,7.148026,-25.317026,15.026026,,,,,,,5
1508446946.404399,1.587319,1.450929,-3.100277,-3.334644,-0.002852,1.302312,0.119565,-0.992824,0.001976,0.095386,-0.406300,0.075463,6.411941,-26.456915,13.294596,,,,,,,5
1508446946.424410,1.010125,1.458423,-2.522219,-2.916955,-0.197900,1.182102,0.094968,-0.993693,-0.059629,0.237933,-0.321203,0.272382,5.909596,-27.190260,11.983076,,,,,,,5
1508446946.444424,0.558223,1.435812,-2.069666,-2.642359,-0.055617,1.203642,0.071281,-0.990903,-0.114146,0.161629,-0.157412,0.484141,5.136505,-28.136503,9.989053,,,,,,,5
1508446946.464423,0.278854,1.399155,-1.786317,-2.475325,0.067664,1.243445,0.047013,-0.985306,-0.164202,0.041381,0.026215,0.538607,4.619399,-28.593323,8.883170,,,,,,,5
1508446946.484446,0.106860,1.356738,-1.608955,-2.347631,0.155834,1.261601,0.022657,-0.977177,-0.211216,0.028628,0.128147,0.573810,4.073449,-28.985016,7.816869,,,,,,,5
1508446946.504460,0.001472,1.313011,-1.492426,-2.193402,0.580579,1.231253,0.000375,-0.966957,-0.254939,0.023673,0.276176,0.637157,2.925776,-29.592243,5.793664,,,,,,,5
1508446946.524451,-0.061398,1.270113,-1.408233,-2.034987,1.108410,1.212730,-0.018173,-0.955134,-0.295615,0.000625,0.324260,0.675605,2.115128,-29.876427,4.555553,,,,,,,5
1508446946.544481,-0.094695,1.230477,-1.343433,-1.809364,1.579702,1.137222,-0.031561,-0.942648,-0.332293,0.008093,0.323706,0.701815,1.703422,-29.985161,3.976958,,,,,,,5
1508446946.564495,-0.103466,1.194851,-1.294722,-1.613327,1.985818,0.950688,-0.037920,-0.930161,-0.365188,0.012544,0.410630,0.748840,0.549636,-30.194284,2.414677,,,,,,,5
1508446946.584505,-0.091471,1.163899,-1.261408,-1.386153,2.191880,0.672691,-0.036150,-0.918353,-0.394107,0.058825,0.472446,0.784503,-0.047531,-30.258631,1.496874,,,,,,,5
1508446946.604516,-0.066291,1.139257,-1.242387,-1.064009,2.040890,0.378173,-0.027707,-0.908323,-0.417351,0.090848,0.482465,0.788475,-0.267767,-30.275095,1.083795,,,,,,,5
1508446946.624507,-0.040256,1.123528,-1.232424,-0.576854,1.553441,0.194430,-0.017406,-0.901632,-0.432154,0.196697,0.479009,0.716151,-0.630076,-30.288748,0.149505,,,,,,,5
1508446946.644541,-0.021849,1.119405,-1.227020,0.029501,0.888799,0.090329,-0.009530,-0.899841,-0.436114,0.284463,0.408203,0.480441,-0.721669,-30.286961,-0.082985,,,,,,,5
1508446946.664555,-0.020244,1.128065,-1.224725,0.672266,-0.281444,0.011700,-0.008672,-0.903585,-0.428321,0.355855,0.343954,0.193458,-0.753409,-30.286301,-0.002849,,,,,,,5
1508446946.684566,-0.037512,1.147545,-1.225500,1.117910,-1.141404,-0.073646,-0.015403,-0.911758,-0.410438,0.393516,0.192718,-0.097848,-0.739317,-30.280552,0.607594,,,,,,,5
1508446946.704577,-0.067868,1.172993,-1.220873,1.355097,-1.485939,0.168684,-0.026271,-0.921914,-0.386502,0.349407,0.057717,-0.321933,-0.694093,-30.257097,1.361609,,,,,,,5
1508446946.724583,-0.139081,1.196133,-1.186582,1.016856,-2.024515,0.731928,-0.050734,-0.930631,-0.362426,-0.016206,-0.387561,-1.217195,-0.739988,-30.233978,1.785107,,,,,,,5
1508446946.744578,-0.214098,1.206287,-1.135456,0.516819,-0.913882,0.797849,-0.075742,-0.934299,-0.348352,-0.310275,-0.212003,-0.511969,-1.264594,-30.149715,2.687562,,,,,,,5
1508446946.764613,-0.251303,1.212517,-1.098870,0.449858,0.290459,0.386151,-0.087198,-0.936502,-0.339649,-0.224799,-0.066565,-0.148846,-1.637026,-30.103960,2.983171,,,,,,,5
1508446946.784624,-0.242743,1.220037,-1.088649,0.271341,1.222689,-0.086299,-0.082592,-0.939112,-0.333537,-0.047168,-0.295644,-0.350332,-1.779139,-30.075836,3.179060,,,,,,,5
1508446946.804636,-0.194405,1.219533,-1.102156,-0.081175,2.173942,-0.309957,-0.066471,-0.938939,-0.337603,-0.062313,-0.054897,0.401445,-1.798453,-30.074089,3.184702,,,,,,,5
1508446946.824648,-0.109519,1.233655,-1.142538,1.043508,2.020959,-1.052498,-0.036155,-0.943704,-0.328809,0.019768,-0.482001,0.689359,-1.595539,-30.073881,3.292962,,,,,,,5
1508446946.844660,-0.044417,1.265689,-1.194820,1.679308,0.192826,-0.613152,-0.013338,-0.953815,-0.300099,-0.233137,-0.834348,0.449086,-1.181399,-30.028006,3.840687,,,,,,,5
1508446946.864675,-0.067504,1.281706,-1.160207,-0.094659,1.242514,0.969051,-0.019230,-0.958504,-0.284431,0.334278,-0.207039,-0.136971,-1.110480,-29.885639,4.841808,,,,,,,5
1508446946.884679,-0.066250,1.251175,-1.098814,-1.708858,3.364938,0.995662,-0.020801,-0.949354,-0.313518,0.629108,0.270476,0.298763,-1.718358,-29.920414,4.432124,,,,,,,5
1508446946.904696,-0.095817,1.241282,-1.032884,0.520206,0.172480,0.986094,-0.030957,-0.946200,-0.322099,0.575147,0.414385,0.466386,-2.371432,-29.986019,3.611444,,,,,,,5
1508446946.924709,-0.164390,1.273591,-1.003317,2.114652,-2.987760,-0.233979,-0.047925,-0.956159,-0.288902,0.303769,0.767499,0.935584,-3.009813,-29.842537,4.265158,,,,,,,5
1508446946.944709,-0.186248,1.324704,-1.037869,2.538628,-2.081017,-1.220006,-0.045111,-0.969872,-0.239403,0.209052,0.284035,0.990196,-2.316874,-29.642879,5.810287,,,,,,,5
1508446946.964726,-0.116560,1.377206,-1.118429,2.333884,0.481626,-1.165456,-0.022373,-0.981320,-0.191078,0.065891,-0.021076,0.798912,-1.833139,-29.511322,6.599179,,,,,,,5
1508446946.984745,-0.013019,1.417814,-1.199688,1.750125,1.256163,-0.619216,-0.001984,-0.988321,-0.152373,-0.396560,-0.429816,0.083068,-1.012259,-29.045954,8.551928,,,,,,,5
1508446947.004756,0.025403,1.450041,-1.226375,1.650379,0.126351,0.118039,0.003060,-0.992718,-0.120424,-0.458382,-0.323841,0.013688,-0.965625,-28.757713,9.480989,,,,,,,5
1508446947.024767,-0.064885,1.488939,-1.142263,2.134496,-0.415528,0.468732,-0.005302,-0.996652,-0.081593,-0.264169,-0.183066,0.092809,-1.019698,-28.589779,9.970579,,,,,,,5
1508446947.044779,-0.368234,1.533534,-0.844409,2.422192,-0.211282,0.288125,-0.013410,-0.999306,-0.034756,0.158445,0.060005,0.195263,-1.263246,-27.867292,11.817188,,,,,,,5
1508446947.064792,-2.293098,1.551939,1.079000,2.259917,-0.037351,-0.123010,-0.014148,-0.999822,0.012466,0.203479,0.170904,0.127243,-1.306684,-27.264257,13.144596,,,,,,,5
1508446947.084782,-2.987994,1.517311,1.775787,1.868454,0.131932,-0.379522,-0.008179,-0.998570,0.052830,0.188858,0.181920,0.076504,-1.260268,-26.968462,13.745596,,,,,,,5
1508446947.104791,3.128009,1.484887,1.946064,1.551406,0.141160,-0.522679,0.001166,-0.996312,0.085796,0.041040,0.128224,0.123692,-0.994262,-26.187851,15.199853,,,,,,,5
1508446947.124828,3.051487,1.454574,2.025952,1.474611,0.125547,-0.442404,0.010435,-0.993254,0.115490,0.010790,0.093809,0.103382,-0.781779,-25.725639,15.981488,,,,,,,5
1508446947.144840,3.017119,1.423287,2.060349,1.591712,-0.132361,-0.356453,0.018247,-0.989140,0.145838,-0.054258,0.060246,0.002127,-0.639874,-25.367001,16.550936,,,,,,,5
1508446947.164830,3.008530,1.387874,2.060389,1.858811,-0.601278,-0.135265,0.024133,-0.983316,0.180296,-0.085687,0.055902,-0.093001,-0.339994,-24.662329,17.592087,,,,,,,5
1508446947.184863,3.017228,1.348421,2.036107,2.061959,-0.817447,0.051514,0.027358,-0.975376,0.218844,-0.006392,0.037876,-0.164339,-0.058809,-23.962748,18.536743,,,,,,,5
1508446947.204874,3.024286,1.305819,2.008373,2.189865,-1.130862,0.062980,0.030651,-0.965098,0.260088,0.156666,0.060817,-0.211199,0.165206,-23.365458,19.283560,,,,,,,5
1508446947.224888,3.012611,1.262282,1.990698,2.176517,-1.595564,-0.064211,0.039056,-0.952786,0.301121,0.236167,0.128933,-0.216115,0.776456,-22.275589,20.518843,,,,,,,5
1508446947.244880,2.988557,1.218874,1.980880,2.174663,-1.654483,-0.204817,0.052546,-0.938712,0.340674,0.152288,0.126014,-0.284949,1.322439,-21.593931,21.208038,,,,,,,5
1508446947.264897,2.961480,1.174221,1.975378,2.232244,-1.634517,-0.258628,0.069195,-0.922389,0.380014,0.091526,0.018062,-0.376825,1.921224,-20.885090,21.862057,,,,,,,5
1508446947.284923,2.932348,1.131906,1.970837,1.899296,-1.642405,-0.438130,0.088268,-0.905224,0.415667,0.169377,-0.341511,-0.502169,3.195220,-19.385580,23.061169,,,,,,,5
1508446947.304908,2.893237,1.103284,1.983146,1.030546,-1.185767,-0.616380,0.110779,-0.892692,0.436839,-0.053070,-0.410561,-0.417674,4.108204,-18.623440,23.539705,,,,,,,5
1508446947.324945,2.864994,1.086085,1.993150,0.650862,-0.958248,-0.319084,0.127245,-0.884810,0.448242,-0.264345,-0.378114,-0.427154,4.483753,-18.368881,23.670822,,,,,,,5
1508446947.344959,2.845710,1.076719,1.994638,0.255276,-0.723430,-0.063439,0.138275,-0.880407,0.453612,-0.442306,-0.611811,-0.715926,5.322499,-17.887888,23.864662,,,,,,,5
1508446947.364967,2.840639,1.083270,1.990484,-0.631475,-0.357182,0.336251,0.138861,-0.883494,0.447387,-0.487494,-0.717961,-1.189605,5.542062,-17.927458,23.784857,,,,,,,5
1508446947.384887,2.835362,1.109828,1.985622,-1.592173,-0.590623,0.571971,0.134097,-0.895622,0.424122,-0.502505,-0.810753,-1.328785,5.561668,-18.126417,23.628975,,,,,,,5
1508446947.404885,2.816350,1.153903,1.993933,-2.518378,-0.415273,0.450530,0.129388,-0.914351,0.383693,-0.031503,-0.603105,-1.073284,5.656159,-19.388611,22.581348,,,,,,,5
1508446947.424913,2.778159,1.214927,2.040780,-3.402905,0.625747,-0.005306,0.123853,-0.937344,0.325648,0.636126,-0.253360,-0.386393,5.530285,-20.720543,21.398661,,,,,,,5
1508446947.444911,2.691493,1.267854,2.135597,-2.713617,-0.381501,-0.552980,0.129790,-0.954463,0.268617,0.657838,-0.327474,0.280592,5.419878,-21.425619,20.721859,,,,,,,5
1508446947.464928,2.547017,1.303961,2.255079,-2.265737,-2.071590,-0.462188,0.147702,-0.964610,0.218429,0.218356,-0.757008,0.614945,6.133749,-22.935658,18.819147,,,,,,,5
1508446947.484949,2.387054,1.337381,2.366070,-2.128316,-2.778599,0.309287,0.158431,-0.972882,0.168524,-0.078231,-0.697940,0.530527,7.124328,-23.702959,17.471157,,,,,,,5
1508446947.504946,2.243652,1.379304,2.468418,-2.350637,-1.615738,1.073882,0.148842,-0.981721,0.118614,-0.357140,-0.687194,0.058861,7.596464,-24.303133,16.415817,,,,,,,5
1508446947.524973,2.033525,1.432623,2.665587,-3.025947,-0.451704,1.498280,0.123250,-0.990469,0.061483,-0.336095,-0.482202,-0.098288,7.346432,-25.510912,14.596266,,,,,,,5
1508446947.544985,1.552733,1.477813,-3.138144,-3.143307,-0.044700,1.517850,0.092834,-0.995680,-0.001677,0.005341,-0.355791,0.295256,6.634888,-26.585838,12.922812,,,,,,,5
1508446947.564994,0.818983,1.481347,-2.396889,-2.893978,0.368707,1.297689,0.065252,-0.996002,-0.061010,0.321147,-0.347763,0.483342,6.023972,-27.296333,11.681161,,,,,,,5
1508446947.585009,0.367056,1.444405,-1.932410,-2.975316,0.601996,0.860649,0.045237,-0.992023,-0.117658,0.290121,-0.236096,0.520078,5.079820,-28.234030,9.739746,,,,,,,5
1508446947.605016,0.180331,1.389536,-1.728218,-3.130796,0.818637,0.815875,0.032332,-0.983617,-0.177346,0.153657,0.016531,0.514642,4.641434,-28.715141,8.469089,,,,,,,5
1508446947.625010,0.070353,1.334587,-1.597695,-2.721402,0.953208,1.082348,0.016450,-0.972232,-0.233440,0.088011,0.195880,0.549083,4.200695,-29.119350,7.228088,,,,,,,5
1508446947.645045,0.009090,1.285576,-1.510030,-2.386005,1.334023,0.972542,0.002558,-0.959600,-0.281357,-0.035959,0.498922,0.642243,3.095664,-29.724379,4.970493,,,,,,,5
1508446947.665045,-0.014858,1.239464,-1.452895,-2.249580,1.584137,0.822663,-0.004833,-0.945610,-0.325267,-0.033695,0.537849,0.705318,2.584025,-29.921833,3.979256,,,,,,,5
1508446947.685066,-0.018727,1.197529,-1.414989,-1.960633,1.582121,0.593998,-0.006829,-0.931141,-0.364596,-0.019249,0.522785,0.738070,2.132145,-30.068834,3.024370,,,,,,,5
1508446947.705080,-0.007265,1.163332,-1.393048,-1.539660,1.612943,0.357928,-0.002879,-0.918129,-0.396272,0.054240,0.493416,0.767701,1.518891,-30.225712,1.388120,,,,,,,5
1508446947.725091,0.014718,1.137414,-1.380580,-1.161421,1.679096,0.193936,0.006180,-0.907551,-0.419897,0.100692,0.493534,0.775092,1.310430,-30.261505,0.593017,,,,,,,5
1508446947.745102,0.039044,1.119535,-1.373041,-0.705438,1.436342,0.108078,0.017023,-0.899898,-0.435768,0.113287,0.497295,0.762413,1.248427,-30.268677,0.276390,,,,,,,5
1508446947.765115,0.057417,1.113856,-1.368727,-0.031118,0.882395,0.074894,0.025319,-0.897407,-0.440477,0.190196,0.440192,0.662752,1.152988,-30.272879,-0.226140,,,,,,,5
1508446947.785126,0.058532,1.121524,-1.365936,0.629582,-0.321486,0.100732,0.025407,-0.900763,-0.433566,0.274963,0.382880,0.484805,1.107976,-30.275280,-0.085702,,,,,,,5
1508446947.805137,0.029939,1.141348,-1.359381,1.151689,-1.546168,0.232950,0.012464,-0.909196,-0.416183,0.328646,0.294648,0.267669,1.073434,-30.276394,0.123922,,,,,,,5
1508446947.825143,-0.014324,1.167296,-1.349900,1.371247,-1.716527,0.155842,-0.005624,-0.919692,-0.392600,0.205499,0.031570,-0.260827,0.913235,-30.260763,1.131331,,,,,,,5
1508446947.845163,-0.055416,1.198383,-1.336380,1.682871,-1.442190,0.275744,-0.020154,-0.931452,-0.363306,-0.070072,-0.420218,-1.465978,0.855959,-30.217276,2.002780,,,,,,,5
1508446947.865170,-0.118179,1.225664,-1.301632,1.041199,-1.254741,0.618761,-0.039890,-0.941031,-0.335961,-0.504086,-0.508676,-1.210304,0.749689,-30.162971,2.731422,,,,,,,5
1508446947.885187,-0.160920,1.232719,-1.263765,0.185734,0.163453,0.483938,-0.053143,-0.943394,-0.327389,-0.440280,-0.029903,-0.482471,0.364292,-30.111763,3.313107,,,,,,,5
1508446947.905199,-0.165310,1.233807,-1.242528,0.147302,1.090164,0.276696,-0.054411,-0.943754,-0.326140,-0.148684,0.001143,-0.144823,0.092455,-30.105482,3.388058,,,,,,,5
1508446947.925209,-0.145359,1.236081,-1.231194,0.040796,1.736597,0.110206,-0.047583,-0.944504,-0.325036,0.051764,-0.359451,-0.232322,-0.077170,-30.096416,3.468047,,,,,,,5
1508446947.945224,-0.107288,1.234911,-1.231448,0.074097,1.868650,-0.095980,-0.035295,-0.944119,-0.327710,0.093629,-0.331806,0.266751,-0.289594,-30.098261,3.440703,,,,,,,5
1508446947.965209,-0.068285,1.251996,-1.247562,1.263558,0.567683,-0.411893,-0.021386,-0.949612,-0.312697,0.022759,-0.341678,0.605300,-0.284369,-30.079531,3.601197,,,,,,,5
1508446947.985244,-0.055511,1.280374,-1.257660,1.254544,0.275769,-0.044851,-0.015888,-0.958123,-0.285916,-0.044095,-0.363288,0.682369,-0.140073,-30.008987,4.155575,,,,,,,5
1508446948.005259,-0.036892,1.280855,-1.243795,-0.869111,2.660547,0.196026,-0.010545,-0.958261,-0.285701,0.502458,-0.030448,0.168285,-0.241996,-29.890612,4.931566,,,,,,,5
1508446948.025270,0.014045,1.253941,-1.236005,-1.068141,2.574534,0.176218,0.004376,-0.950220,-0.311549,0.413989,0.197580,0.391398,-0.592236,-30.006901,4.130709,,,,,,,5
1508446948.045280,0.023812,1.262088,-1.224782,1.304592,-0.107385,0.061747,0.007234,-0.952727,-0.303742,0.288024,0.285170,0.528901,-0.748134,-30.037434,3.875622,,,,,,,5
1508446948.065295,0.026876,1.305336,-1.264561,2.465777,-2.537417,-0.809985,0.007050,-0.964972,-0.262259,-0.036744,0.314596,0.970480,-0.576617,-29.851234,5.137991,,,,,,,5
1508446948.085305,0.048995,1.355252,-1.329880,2.466645,-1.196635,-0.472504,0.010475,-0.976860,-0.213623,-0.005760,-0.102287,1.197250,0.164761,-29.557093,6.646709,,,,,,,5
1508446948.105318,0.094918,1.397199,-1.362833,1.833207,1.549045,-0.089154,0.016370,-0.984970,-0.171949,-0.038968,-0.117539,1.024092,0.334054,-29.386957,7.356820,,,,,,,5
1508446948.125314,0.166194,1.424411,-1.401328,1.201967,1.350612,-0.121134,0.024130,-0.989305,-0.143853,-0.314902,-0.260070,-0.292487,0.209241,-29.080517,8.491606,,,,,,,5
1508446948.145341,0.190980,1.452592,-1.419035,1.665137,-0.209708,0.322314,0.022385,-0.993022,-0.115785,-0.152650,-0.203298,-0.183349,-0.055168,-28.722425,9.635710,,,,,,,5
1508446948.165347,0.157180,1.497508,-1.400970,2.474382,-0.994489,0.525378,0.011462,-0.997316,-0.072320,0.036237,-0.097228,-0.055763,-0.123736,-28.546215,10.145245,,,,,,,5
1508446948.185342,-0.006069,1.551775,-1.257722,2.685225,-0.972359,0.505840,-0.000115,-0.999819,-0.019020,0.205575,0.209444,0.144020,-0.243820,-27.708448,12.247856,,,,,,,5
1508446948.205377,-2.899358,1.539837,1.618408,2.294794,-0.742520,0.250447,-0.007425,-0.999521,0.030050,0.123407,0.294900,0.164133,-0.243239,-27.046312,13.647909,,,,,,,5
1508446948.225375,-3.055714,1.501815,1.765384,1.687511,-0.278737,-0.274875,-0.005912,-0.997622,0.068672,0.029517,0.273638,0.146522,-0.164101,-26.589437,14.519040,,,,,,,5
1508446948.245401,3.091507,1.472901,1.901853,1.366426,0.086686,-0.625446,0.004893,-0.995212,0.097617,-0.010753,0.065921,0.009119,0.148176,-25.989227,15.568100,,,,,,,5
1508446948.265413,3.015582,1.444986,1.978807,1.365136,-0.052949,-0.456268,0.015770,-0.992096,0.124484,-0.025886,-0.092056,-0.089388,0.433547,-25.555380,16.265369,,,,,,,5
1508446948.285424,3.005504,1.415565,1.981712,1.530794,-0.579603,-0.052826,0.020976,-0.987976,0.153179,-0.090601,-0.045655,-0.104641,0.612186,-25.206749,16.795019,,,,,,,5
1508446948.305437,3.028002,1.382835,1.939440,1.734998,-1.138545,0.236983,0.021180,-0.982387,0.185653,-0.084244,0.118160,-0.060561,0.911855,-24.520975,17.768456,,,,,,,5
1508446948.325445,3.040483,1.347789,1.902388,1.792717,-1.157062,0.115000,0.022324,-0.975237,0.220034,0.026779,0.124361,-0.022784,1.147754,-24.047142,18.391445,,,,,,,5
1508446948.345459,3.031927,1.311907,1.889423,1.802621,-1.011254,-0.110534,0.028019,-0.966675,0.254469,0.101345,0.072968,-0.040113,1.431049,-23.546263,19.009293,,,,,,,5
1508446948.365473,3.013059,1.275425,1.889397,1.815660,-0.903536,-0.291351,0.037313,-0.956694,0.288694,0.184474,0.011031,-0.066068,2.106070,-22.476902,20.203487,,,,,,,5
1508446948.385483,2.987058,1.238409,1.899499,1.793582,-0.773551,-0.489478,0.050224,-0.945266,0.322412,0.022240,-0.069184,-0.197061,2.618584,-21.711967,20.965714,,,,,,,5
1508446948.405495,2.961940,1.203769,1.909206,1.591105,-0.848443,-0.367695,0.064121,-0.933398,0.353067,-0.076740,-0.163465,-0.291360,2.888669,-21.322544,21.326797,,,,,,,5
1508446948.425508,2.948543,1.175689,1.902275,1.290322,-1.072224,-0.004075,0.073846,-0.922955,0.377757,-0.100335,-0.309528,-0.466777,3.660149,-20.282124,22.205097,,,,,,,5
1508446948.445520,2.936058,1.153758,1.890277,1.020070,-1.257129,-0.061813,0.082668,-0.914293,0.396529,0.073948,-0.190749,-0.549803,4.154258,-19.751736,22.592892,,,,,,,5
1508446948.465532,2.905013,1.135117,1.892214,0.866296,-1.594699,-0.316746,0.098914,-0.906583,0.410271,0.128518,-0.165865,-0.537102,4.469713,-19.523788,22.730396,,,,,,,5
1508446948.485543,2.861774,1.117006,1.902786,0.737848,-1.641038,-0.524402,0.121071,-0.898792,0.421325,-0.055718,-0.299862,-0.263839,5.770376,-18.877125,22.982265,,,,,,,5
1508446948.505556,2.823410,1.105333,1.918520,0.275283,-0.937302,-0.459545,0.140415,-0.893613,0.426308,-0.250171,-0.433947,-0.397362,6.604762,-18.549959,23.023981,,,,,,,5
1508446948.525538,2.794712,1.101537,1.933326,-0.030602,-0.786898,-0.329927,0.153742,-0.891903,0.425290,-0.395731,-0.507724,-0.717908,6.888030,-18.467880,23.006958,,,,,,,5
1508446948.545571,2.763138,1.106083,1.949428,-0.622802,-0.840307,-0.199634,0.165591,-0.893950,0.416453,-0.700289,-0.781999,-1.008402,7.623882,-18.471455,22.770802,,,,,,,5
1508446948.565590,2.728182,1.131840,1.974289,-1.897004,-0.482579,0.135096,0.170736,-0.905196,0.389192,-0.738744,-0.806489,-1.039277,7.737881,-18.534580,22.680878,,,,,,,5
1508446948.585594,2.687583,1.182942,2.016372,-3.101968,0.169026,0.369469,0.165870,-0.925723,0.339890,0.044091,-0.365522,-0.666412,8.031387,-19.698746,21.570442,,,,,,,5
1508446948.605599,2.619297,1.246895,2.099610,-3.576507,0.547474,0.067710,0.158774,-0.948001,0.275835,0.466119,-0.018796,-0.132143,7.715079,-21.457706,19.946730,,,,,,,5
1508446948.625627,2.498240,1.297570,2.228663,-2.803511,-0.214912,-0.317247,0.161872,-0.962905,0.215896,0.477807,-0.322938,0.269898,7.639528,-22.731230,18.513683,,,,,,,5
1508446948.645632,2.354068,1.327758,2.356026,-1.872585,-1.633934,-0.104076,0.170528,-0.970611,0.169805,0.365589,-0.828598,0.490672,7.889013,-23.385826,17.569698,,,,,,,5
1508446948.665627,2.231917,1.355887,2.431947,-1.472366,-2.693035,0.879057,0.168326,-0.976996,0.130941,0.156946,-0.645395,0.583414,8.625490,-24.156990,16.120434,,,,,,,5
1508446948.685662,2.137923,1.396599,2.485503,-1.784099,-1.417686,1.596150,0.146184,-0.984866,0.093108,-0.149190,-0.542615,0.376817,8.786363,-24.835571,14.960676,,,,,,,5
1508446948.705673,1.935817,1.449492,2.681571,-2.906187,0.035482,1.700850,0.113035,-0.992652,0.043196,-0.301862,-0.469354,0.088823,8.366694,-25.495127,14.065016,,,,,,,5
1508446948.725687,1.281327,1.484368,-2.934929,-3.688561,0.749699,1.373379,0.082729,-0.996267,-0.024640,-0.037151,-0.408441,0.245663,7.246623,-26.834793,12.050230,,,,,,,5
1508446948.745673,0.538716,1.456807,-2.164528,-3.663169,1.388896,1.283569,0.058354,-0.993510,-0.097633,0.198207,-0.136800,0.403557,6.289398,-27.848249,10.136372,,,,,,,5
1508446948.765709,0.237041,1.407196,-1.835021,-2.839706,1.028926,1.150612,0.038247,-0.986647,-0.158318,0.247734,-0.006883,0.427788,5.797007,-28.272367,9.213874,,,,,,,5
1508446948.785723,0.090943,1.362789,-1.671658,-2.267680,0.616339,1.122015,0.018755,-0.978444,-0.205657,0.084913,0.159627,0.500319,4.578463,-29.116327,7.007476,,,,,,,5
1508446948.805734,0.002392,1.318697,-1.566166,-2.301781,0.833975,1.076114,0.000597,-0.968391,-0.249436,0.008665,0.201622,0.627610,3.844043,-29.496418,5.745635,,,,,,,5
1508446948.825747,-0.041568,1.270031,-1.496181,-2.449842,1.376485,0.956051,-0.012311,-0.955110,-0.295995,-0.007098,0.240175,0.683599,3.480967,-29.661474,5.089938,,,,,,,5
1508446948.845758,-0.051800,1.222043,-1.450003,-2.263409,1.825100,0.769469,-0.017693,-0.939800,-0.341268,-0.021995,0.373454,0.694249,2.474170,-30.039610,3.054164,,,,,,,5
1508446948.865770,-0.038478,1.180968,-1.421561,-1.871245,2.081046,0.503520,-0.014619,-0.924974,-0.379748,-0.038939,0.436617,0.709033,1.974627,-30.174030,1.859144,,,,,,,5
1508446948.885754,-0.008377,1.148750,-1.406342,-1.440741,2.269032,0.251677,-0.003431,-0.912253,-0.409613,-0.019396,0.446234,0.754264,1.730215,-30.225523,1.118796,,,,,,,5
1508446948.905770,0.031688,1.125117,-1.399884,-1.023007,2.280840,0.046444,0.013658,-0.902318,-0.430855,0.132018,0.464284,0.749016,1.542549,-30.255726,0.198393,,,,,,,5
1508446948.925804,0.072429,1.110211,-1.399172,-0.565887,1.890426,-0.038452,0.032164,-0.895793,-0.443307,0.188569,0.457652,0.725442,1.537397,-30.256182,-0.165903,,,,,,,5
1508446948.945803,0.100927,1.106795,-1.399854,0.103169,1.055126,-0.025043,0.045091,-0.894269,-0.445252,0.245573,0.448453,0.661988,1.561776,-30.253036,-0.377063,,,,,,,5
1508446948.965828,0.114271,1.118185,-1.403143,0.831846,0.211313,-0.006889,0.049864,-0.899308,-0.434464,0.218706,0.455781,0.441895,1.589333,-30.253592,-0.148169,,,,,,,5
1508446948.985841,0.111852,1.140472,-1.408113,1.260252,-0.710851,0.040669,0.046564,-0.908830,-0.414559,0.237143,0.428865,0.305199,1.584579,-30.250696,0.460545,,,,,,,5
1508446949.005826,0.089136,1.168928,-1.410989,1.502226,-1.492627,0.105960,0.034818,-0.920332,-0.389586,0.321841,0.138944,-0.093919,1.568799,-30.237080,1.041883,,,,,,,5
1508446949.025866,0.062553,1.199426,-1.411612,1.442405,-1.247052,0.147177,0.022685,-0.931831,-0.362183,0.169438,-0.286110,-1.055862,1.553047,-30.180468,2.134249,,,,,,,5
1508446949.045854,0.006410,1.217911,-1.387122,0.489942,-2.003136,0.694540,0.002215,-0.938379,-0.345600,-0.218905,-0.645727,-1.868237,1.426813,-30.133888,2.782207,,,,,,,5
1508446949.065887,-0.072016,1.219774,-1.335495,0.077001,-0.915471,0.888932,-0.024742,-0.939022,-0.342967,-0.423210,-0.375950,-0.603124,1.142369,-30.137552,2.872381,,,,,,,5
1508446949.085901,-0.102418,1.220213,-1.300563,0.048422,0.665499,0.340483,-0.035113,-0.939172,-0.341646,-0.162228,-0.162039,-0.326109,0.596527,-30.148785,2.919353,,,,,,,5
1508446949.105901,-0.094929,1.218100,-1.284409,-0.085008,1.359251,0.334583,-0.032742,-0.938445,-0.343875,0.013684,0.008269,-0.025480,0.366447,-30.154167,2.901647,,,,,,,5
1508446949.125905,-0.079985,1.219004,-1.267196,0.167418,1.625335,0.212292,-0.027532,-0.938756,-0.343480,0.091848,-0.033701,0.095295,0.222738,-30.156864,2.888167,,,,,,,5
1508446949.145938,-0.048747,1.222845,-1.267408,0.178838,1.421082,-0.171076,-0.016615,-0.940073,-0.340568,0.222700,-0.098410,0.132987,-0.057971,-30.143970,3.027434,,,,,,,5
1508446949.165948,-0.017250,1.230917,-1.285323,0.705638,0.282555,-0.311329,-0.005750,-0.942795,-0.333323,0.135175,-0.188095,0.160029,0.047382,-30.127754,3.184933,,,,,,,5
1508446949.185958,-0.013551,1.258870,-1.291659,1.601921,-0.180165,-0.045547,-0.004158,-0.951744,-0.306864,-0.039176,-0.219124,0.216853,0.122297,-30.098259,3.450721,,,,,,,5
1508446949.205973,0.004025,1.282744,-1.288200,0.832855,2.063349,0.104189,0.001143,-0.958799,-0.284083,-0.367827,-0.499804,0.514506,0.116216,-29.925074,4.722720,,,,,,,5
1508446949.225983,0.055688,1.282773,-1.278677,-0.556091,3.177378,0.103123,0.015811,-0.958807,-0.283617,0.288267,-0.190134,0.119982,-0.231211,-29.891624,4.925941,,,,,,,5
1508446949.245974,0.073952,1.270689,-1.256419,-0.293716,1.111114,0.438056,0.021842,-0.955305,-0.294815,0.380303,0.021787,0.388992,-0.412878,-29.923578,4.715570,,,,,,,5
1508446949.266000,0.022661,1.287612,-1.208844,1.463449,-0.981181,0.845998,0.006331,-0.960171,-0.279342,0.357942,0.426189,0.790787,-0.980736,-29.910915,4.712007,,,,,,,5
1508446949.286019,-0.038742,1.330925,-1.174093,2.430904,-1.342799,-0.039610,-0.009202,-0.971369,-0.237399,0.203706,0.793909,0.864123,-1.231438,-29.692205,5.889321,,,,,,,5
1508446949.306033,0.029389,1.378908,-1.253061,2.255361,0.200094,-1.169586,0.005604,-0.981646,-0.190631,0.010982,0.351336,0.858768,-0.945153,-29.461685,6.995964,,,,,,,5
1508446949.326028,0.186777,1.414801,-1.388745,1.694966,1.535088,-0.749434,0.028850,-0.987857,-0.152661,-0.244548,-0.387814,0.091840,-0.286942,-29.067429,8.534044,,,,,,,5
1508446949.346056,0.286076,1.442799,-1.473376,1.463265,-0.055390,0.077951,0.036021,-0.991819,-0.122461,-0.363521,-0.441835,-0.329138,-0.231992,-28.789856,9.429638,,,,,,,5
1508446949.366061,0.254726,1.478898,-1.466319,1.914402,-1.556695,0.687444,0.023124,-0.995780,-0.088807,-0.098807,-0.252373,-0.278533,-0.261116,-28.560726,10.101702,,,,,,,5
1508446949.386056,0.161115,1.522997,-1.399708,2.165572,-1.139527,0.631272,0.007665,-0.998858,-0.047162,0.214289,0.031390,0.082425,-0.347789,-28.016016,11.524303,,,,,,,5
1508446949.406090,-0.125532,1.564885,-1.129247,1.956374,-0.681001,0.181634,-0.000740,-0.999983,-0.005864,0.194908,0.114011,0.079534,-0.407545,-27.498171,12.708743,,,,,,,5
1508446949.426089,2.811861,1.545167,2.204413,1.172244,-0.523640,-0.808543,0.008298,-0.999672,0.024246,-0.072476,0.178260,0.217895,-0.251686,-27.144377,13.451655,,,,,,,5
1508446949.446116,2.631938,1.522009,2.383160,0.939303,0.172206,-0.535235,0.023793,-0.998810,0.042570,-0.008259,0.078476,0.143679,0.389888,-26.776447,14.166775,,,,,,,5
1508446949.466127,2.723499,1.497929,2.292194,1.335037,-0.077760,-0.262778,0.029560,-0.997346,0.066532,0.029797,0.178743,0.038448,0.552077,-26.454802,14.753516,,,,,,,5
1508446949.486138,2.786288,1.468687,2.229431,1.493691,0.109989,-0.319887,0.035460,-0.994791,0.095566,0.039812,0.162028,-0.037262,0.674918,-26.137135,15.304324,,,,,,,5
1508446949.506152,2.826997,1.436619,2.189890,1.689562,-0.052403,-0.249184,0.041394,-0.991012,0.127209,-0.083859,0.068221,-0.104580,0.842162,-25.527334,16.293362,,,,,,,5
1508446949.526159,2.875845,1.399055,2.131810,2.035445,-0.621108,0.004520,0.044883,-0.985289,0.164900,-0.115348,0.029524,-0.059965,-2.054440,-24.007109,18.905081,,,,,,,5
1508446949.546173,2.926923,1.360047,2.064186,2.009588,-0.780739,0.223523,0.044563,-0.977874,0.204391,-0.076408,0.026367,-0.040741,-1.877204,-23.421034,19.644218,,,,,,,5
1508446949.566186,2.964277,1.322653,2.012624,1.932903,-0.550357,0.170892,0.043322,-0.969370,0.241754,0.163649,0.083094,-0.000452,-1.573107,-22.191639,21.048054,,,,,,,5
1508446949.586198,2.981527,1.283806,1.984066,2.008843,-0.550022,-0.025458,0.045116,-0.959100,0.279449,0.301716,0.067148,-0.110183,-1.393461,-21.347025,21.916359,,,,,,,5
1508446949.606209,2.978009,1.243022,1.971541,2.055123,-0.953258,-0.193611,0.052429,-0.946761,0.317639,0.308685,0.029937,-0.200452,-1.253924,-20.900845,22.350536,,,,,,,5
1508446949.626222,2.961820,1.202062,1.961368,2.022280,-1.443876,-0.147404,0.064448,-0.932784,0.354626,0.088903,-0.058884,-0.340314,-0.435010,-19.489956,23.620255,,,,,,,5
1508446949.646234,2.948194,1.164309,1.945522,1.810074,-1.320013,0.001067,0.075991,-0.918515,0.388014,0.022199,-0.192966,-0.355239,0.294432,-18.547604,24.369320,,,,,,,5
1508446949.666230,2.939288,1.134293,1.929763,1.345722,-1.092411,0.005924,0.084947,-0.906236,0.414151,0.065230,-0.273772,-0.454358,0.749407,-17.916828,24.827198,,,,,,,5
1508446949.686257,2.925104,1.112475,1.922606,0.972275,-1.100201,-0.151553,0.095038,-0.896796,0.432116,-0.081137,-0.405572,-0.512331,1.420176,-17.132710,25.345957,,,,,,,5
1508446949.706269,2.894949,1.096253,1.923779,0.662790,-1.648364,-0.198176,0.111560,-0.889501,0.443104,-0.163944,-0.413248,-0.502888,2.159337,-16.686939,25.589985,,,,,,,5
1508446949.726260,2.863402,1.087391,1.924107,0.280209,-1.363067,-0.087191,0.127641,-0.885417,0.446927,-0.318132,-0.395299,-0.351697,2.840366,-16.461834,25.669134,,,,,,,5
1508446949.746285,2.844430,1.085966,1.926633,-0.074779,-0.553338,-0.074602,0.136466,-0.884754,0.445631,-0.346763,-0.607739,-0.629545,3.606588,-16.334320,25.654369,,,,,,,5
1508446949.766305,2.833477,1.093031,1.932067,-0.628838,-0.222209,0.054168,0.139439,-0.888025,0.438142,-0.408147,-0.698767,-0.808702,3.821496,-16.451708,25.548025,,,,,,,5
1508446949.786319,2.820522,1.120998,1.940017,-1.893206,-0.349988,0.384352,0.137211,-0.900535,0.412566,-0.590671,-0.811181,-1.137084,3.879350,-16.806147,25.307472,,,,,,,5
1508446949.806330,2.793909,1.174458,1.965260,-3.144364,0.082770,0.306208,0.131533,-0.922481,0.362944,0.045667,-0.365407,-0.662627,3.890965,-18.218163,24.308910,,,,,,,5
1508446949.826341,2.732855,1.240665,2.037824,-3.500409,0.357597,-0.141588,0.128841,-0.946000,0.297463,0.472630,-0.048629,-0.257638,3.711089,-19.866989,23.010750,,,,,,,5
1508446949.846352,2.622791,1.292237,2.152094,-2.732924,-0.373635,-0.428610,0.136342,-0.961452,0.238789,0.527370,-0.386951,0.185528,3.718524,-20.984282,21.995377,,,,,,,5
1508446949.866365,2.500768,1.324733,2.254208,-1.742737,-1.721916,-0.027501,0.145631,-0.969879,0.195261,0.433089,-0.810456,0.471884,4.269807,-22.260822,20.595839,,,,,,,5
1508446949.886358,2.392856,1.355520,2.316099,-1.711692,-2.546866,0.721712,0.145412,-0.976917,0.156485,0.232106,-0.648449,0.549478,5.029742,-22.945919,19.650715,,,,,,,5
1508446949.906387,2.273993,1.399550,2.401389,-2.376501,-1.129960,1.158100,0.129986,-0.985373,0.110198,-0.085400,-0.428461,0.426850,5.390844,-23.550287,18.822510,,,,,,,5
1508446949.926401,2.035660,1.451361,2.634281,-3.073497,-0.078694,1.229803,0.106507,-0.992876,0.053416,-0.272248,-0.359266,0.144781,5.056392,-24.855530,17.163904,,,,,,,5
1508446949.946412,1.399905,1.486330,-3.004583,-3.597452,0.518217,1.116261,0.083137,-0.996435,-0.014347,-0.111549,-0.327814,0.203923,4.404916,-26.047110,15.495446,,,,,,,5
1508446949.966423,0.633874,1.463807,-2.217842,-3.624141,1.013983,1.014200,0.063246,-0.994282,-0.086041,0.028871,-0.300335,0.328565,4.024799,-26.638947,14.564737,,,,,,,5
1508446949.986436,0.300774,1.412750,-1.863233,-3.134140,0.792549,0.954193,0.046628,-0.987537,-0.150324,0.200702,-0.057431,0.413690,2.824195,-28.139229,11.754648,,,,,,,5
1508446950.006448,0.145474,1.361975,-1.692911,-2.663401,0.527803,0.961072,0.030052,-0.978276,-0.205117,0.129632,0.045674,0.539773,2.143878,-28.817303,10.145489,,,,,,,5
1508446950.026461,0.054536,1.312068,-1.587097,-2.598545,0.711555,0.961747,0.013946,-0.966716,-0.255471,0.050141,0.160335,0.641213,1.644873,-29.222319,9.017461,,,,,,,5
1508446950.046456,0.008349,1.260855,-1.518669,-2.552727,1.138095,0.820836,0.002547,-0.952351,-0.304993,-0.023924,0.311269,0.652435,0.797111,-29.775188,7.125089,,,,,,,5
1508446950.066483,-0.008440,1.211781,-1.471762,-2.352612,1.558367,0.733368,-0.002965,-0.936243,-0.351340,-0.026393,0.324762,0.693702,0.160207,-30.102329,5.638105,,,,,,,5
1508446950.086489,-0.000654,1.169355,-1.441171,-1.970092,1.911016,0.474865,-0.000255,-0.920499,-0.390745,-0.061451,0.378354,0.695173,-0.274687,-30.275658,4.612293,,,,,,,5
1508446950.106484,0.024070,1.135583,-1.424397,-1.516188,2.038545,0.254047,0.010147,-0.906780,-0.421481,-0.052399,0.474331,0.786670,-0.774557,-30.451368,3.174647,,,,,,,5
1508446950.126501,0.054504,1.111472,-1.413328,-1.028353,1.980619,0.167526,0.024152,-0.896352,-0.442685,-0.042020,0.494176,0.825817,0.923342,-30.177629,3.939282,,,,,,,5
1508446950.146530,0.083158,1.097879,-1.405151,-0.472315,1.638116,0.128203,0.037833,-0.890243,-0.453912,0.091485,0.549850,0.847161,0.745826,-30.230040,3.556440,,,,,,,5
1508446950.166544,0.101000,1.098482,-1.397855,0.332861,0.916635,0.204577,0.045872,-0.890518,-0.452630,0.166729,0.553253,0.812661,0.509516,-30.256046,3.372231,,,,,,,5
1508446950.186556,0.100312,1.115132,-1.389978,1.073239,-0.047087,0.263197,0.044069,-0.897969,-0.437847,0.232603,0.517445,0.671749,0.321945,-30.213499,3.755076,,,,,,,5
1508446950.206566,0.081247,1.145601,-1.385788,1.723363,-1.281882,0.256982,0.033477,-0.910958,-0.411138,0.365418,0.457818,0.442937,0.234814,-30.137764,4.326654,,,,,,,5
1508446950.226580,0.034340,1.186422,-1.374205,2.181383,-1.955274,0.369895,0.012874,-0.927033,-0.374758,0.414418,0.266938,0.194521,0.200532,-29.907858,5.704351,,,,,,,5
1508446950.246587,-0.009230,1.231759,-1.364954,2.162572,-1.673675,0.086731,-0.003070,-0.943075,-0.332565,0.295214,-0.365320,-0.822479,0.274839,-29.619658,7.047005,,,,,,,5
1508446950.266601,-0.061883,1.246193,-1.343574,-0.121291,-1.340323,0.588791,-0.019724,-0.947777,-0.318322,0.059214,-1.185920,-2.534293,0.374372,-29.476162,7.620736,,,,,,,5
1508446950.286615,-0.108191,1.242323,-1.303565,-0.065538,-0.032572,0.603017,-0.034834,-0.946536,-0.320713,-0.457826,-0.533155,-0.755841,0.144483,-29.454380,7.712231,,,,,,,5
1508446950.306627,-0.128977,1.241874,-1.276178,0.037829,0.478732,0.407279,-0.041547,-0.946391,-0.320340,-0.099398,0.264705,-0.235721,-0.164346,-29.453632,7.714685,,,,,,,5
1508446950.326636,-0.123688,1.239953,-1.255574,-0.073269,1.726513,0.259306,-0.040077,-0.945769,-0.322359,0.032630,0.434096,0.121432,-0.428210,-29.452604,7.708469,,,,,,,5
1508446950.346643,-0.081887,1.241928,-1.255492,0.247864,2.055110,-0.203088,-0.026418,-0.946409,-0.321890,0.141591,0.109586,0.240133,-0.903565,-29.450535,7.675249,,,,,,,5
1508446950.366662,-0.028355,1.256313,-1.292824,1.060230,0.036205,-0.822914,-0.008770,-0.950956,-0.309201,0.268291,-0.325228,0.202343,-0.845446,-29.383492,7.934446,,,,,,,5
1508446950.386675,0.001551,1.294322,-1.330698,2.180582,-0.207887,-0.280414,0.000423,-0.962024,-0.272965,0.028568,-0.852429,0.231125,-0.474762,-29.212109,8.572464,,,,,,,5
1508446950.406686,-0.000011,1.321829,-1.312754,0.649468,1.725523,0.388782,-0.000003,-0.969167,-0.246403,-0.322736,-0.557536,0.243397,-0.479289,-28.790432,9.896523,,,,,,,5
1508446950.426700,0.026657,1.310204,-1.283537,-1.234653,2.921615,0.380522,0.006867,-0.966238,-0.257561,0.010741,-0.228404,0.213479,-0.445609,-29.700321,8.162655,,,,,,,5
1508446950.446688,0.014414,1.284512,-1.225072,-1.016845,1.506696,1.050974,0.004070,-0.959300,-0.282361,0.254459,0.268672,0.529050,-0.966520,-29.835499,7.605612,,,,,,,5
1508446950.466714,-0.076995,1.285419,-1.134778,0.874269,-1.293125,1.172006,-0.021654,-0.959555,-0.280686,0.242693,0.765403,0.827622,-2.165297,-29.939362,6.919736,,,,,,,5
1508446950.486734,-0.164547,1.326974,-1.087495,2.723364,-2.082966,-0.216661,-0.039545,-0.970422,-0.238152,0.273889,0.863931,0.946435,-2.367644,-29.753513,7.619672,,,,,,,5
1508446950.506744,-0.138834,1.388776,-1.130206,2.969950,0.105045,-1.202118,-0.025051,-0.983480,-0.179275,0.159557,0.153966,0.944015,-1.853890,-29.298859,9.331478,,,,,,,5
1508446950.526742,0.013358,1.442832,-1.258363,2.319352,1.705866,-1.029530,0.001705,-0.991824,-0.127604,-0.058666,-0.387403,0.172435,-1.165549,-28.607309,11.366614,,,,,,,5
1508446950.546771,0.160483,1.474844,-1.385173,1.294349,0.348353,-0.231942,0.015309,-0.995400,-0.094574,-0.311940,-0.730216,-0.479019,-1.063318,-28.170004,12.420020,,,,,,,5
1508446950.566780,0.140104,1.499873,-1.375942,1.340716,-0.883903,0.395709,0.009896,-0.997486,-0.070170,-0.094933,-0.209133,0.069529,-1.040341,-27.938511,12.934214,,,,,,,5
1508446950.586795,-0.024743,1.535679,-1.230217,2.010233,-0.965557,0.538525,-0.000869,-0.999383,-0.035100,0.146285,0.108438,0.194707,-1.030707,-27.415752,14.008949,,,,,,,5
1508446950.606798,-2.272246,1.553812,0.998140,2.417929,-0.993161,0.604690,-0.012974,-0.999856,0.010960,0.255833,0.166619,0.145183,-1.053812,-26.942638,14.896986,,,,,,,5
1508446950.626815,-2.792762,1.506718,1.498203,2.409852,-1.047101,0.368209,-0.021887,-0.997948,0.060177,0.279287,0.198189,0.091480,-1.063290,-26.376989,15.876410,,,,,,,5
1508446950.646830,-2.926226,1.463454,1.611156,2.050657,-1.033431,-0.029766,-0.022896,-0.994244,0.104661,0.192543,0.324490,0.032180,-0.785558,-25.181890,17.725458,,,,,,,5
1508446950.666840,-3.043135,1.429137,1.711357,1.664801,-0.756468,-0.478869,-0.013878,-0.989983,0.140502,0.061242,0.192605,0.087663,-0.326107,-24.497732,18.673277,,,,,,,5
1508446950.686852,-3.124089,1.397772,1.782805,1.584658,-0.387593,-0.420691,-0.003013,-0.985069,0.172136,-0.030037,-0.009698,0.106703,0.039954,-24.035816,19.266928,,,,,,,5
1508446950.706866,3.120349,1.365940,1.815139,1.598191,-0.373185,-0.248080,0.004321,-0.979090,0.203380,-0.157703,-0.078557,0.018269,0.445028,-23.250221,20.203114,,,,,,,5
1508446950.726876,3.098654,1.334703,1.826408,1.505483,-0.637242,-0.129793,0.010041,-0.972259,0.233690,-0.256119,-0.095902,-0.101030,0.730835,-22.597897,20.922180,,,,,,,5
1508446950.746868,3.085829,1.306900,1.825640,1.312558,-0.655831,-0.006825,0.014538,-0.965381,0.260438,-0.262432,-0.081280,-0.170060,0.529928,-23.336962,20.091465,,,,,,,5
1508446950.766885,3.084492,1.282980,1.814318,1.163219,-0.608507,0.136784,0.016200,-0.958866,0.283396,-0.028254,0.062809,-0.057093,0.836871,-22.690681,20.808514,,,,,,,5
1508446950.786911,3.087563,1.258307,1.797026,1.336723,-0.719933,0.196693,0.016602,-0.951571,0.306979,0.054778,0.111804,-0.016483,0.980500,-22.320583,21.198864,,,,,,,5
1508446950.806922,3.082734,1.227476,1.783905,1.677807,-0.955383,0.055589,0.019801,-0.941642,0.336033,0.198308,0.170997,-0.039600,1.223772,-21.730110,21.791428,,,,,,,5
1508446950.826913,3.066048,1.191202,1.779662,1.852715,-1.063243,-0.079336,0.027966,-0.928815,0.369487,0.209796,-0.073108,-0.327419,1.764287,-20.765179,22.677216,,,,,,,5
1508446950.846947,3.048513,1.155649,1.774626,1.700413,-1.139487,-0.032737,0.037487,-0.915057,0.401579,0.084003,-0.214383,-0.405241,2.292287,-19.925419,23.372734,,,,,,,5
1508446950.866959,3.026810,1.125379,1.771595,1.386589,-1.261919,-0.155736,0.049344,-0.902431,0.428000,0.039401,-0.235951,-0.432959,2.721935,-19.347015,23.808519,,,,,,,5
1508446950.886972,2.999146,1.101289,1.775596,1.065158,-1.141010,-0.260513,0.064232,-0.891791,0.447864,0.069130,-0.354409,-0.491016,3.558170,-18.545849,24.330074,,,,,,,5
1508446950.906957,2.969114,1.085463,1.782422,0.520125,-1.287410,-0.285353,0.080063,-0.884519,0.459582,-0.096116,-0.424105,-0.499300,4.226141,-18.087795,24.566910,,,,,,,5
1508446950.926995,2.937277,1.081845,1.789892,-0.033885,-1.163328,-0.125862,0.095301,-0.882826,0.459930,-0.309794,-0.436586,-0.399628,4.779218,-17.939030,24.574619,,,,,,,5
1508446950.947009,2.916691,1.085865,1.792956,-0.295163,-0.753769,-0.005263,0.103956,-0.884707,0.454408,-0.272367,-0.438321,-0.581391,5.457979,-17.991652,24.394110,,,,,,,5
1508446950.967015,2.895270,1.094669,1.800878,-0.626105,-0.713656,-0.128281,0.111761,-0.888777,0.444506,-0.317358,-0.562319,-0.818178,5.732363,-18.117212,24.237743,,,,,,,5
1508446950.987030,2.865337,1.117442,1.820507,-1.672887,-0.556823,-0.095278,0.119462,-0.898983,0.421376,-0.409547,-0.667591,-0.949697,6.021859,-18.338943,23.999622,,,,,,,5
1508446951.007044,2.825985,1.165305,1.856728,-2.978685,-0.111685,0.016726,0.122441,-0.918909,0.374986,-0.271825,-0.608603,-0.907487,6.415826,-19.624916,22.853041,,,,,,,5
1508446951.027055,2.763721,1.230584,1.927791,-3.703547,0.285152,-0.228525,0.123112,-0.942684,0.310147,0.247479,-0.168126,-0.498913,6.391628,-21.094936,21.510750,,,,,,,5
1508446951.047066,2.647879,1.291407,2.048579,-3.289778,-0.319161,-0.425738,0.130686,-0.961224,0.242836,0.427785,-0.090549,-0.089424,6.434163,-22.220505,20.332542,,,,,,,5
1508446951.067082,2.498658,1.332756,2.182079,-2.263053,-1.485596,-0.269081,0.141373,-0.971802,0.188719,0.277146,-0.508285,0.331392,6.936984,-23.628489,18.496876,,,,,,,5
1508446951.087090,2.361488,1.361672,2.279072,-1.578210,-2.395882,0.479075,0.146019,-0.978213,0.147573,0.137444,-0.767560,0.605113,7.644825,-24.323750,17.276386,,,,,,,5
1508446951.107089,2.280210,1.398350,2.315959,-1.555623,-1.896477,1.424067,0.130195,-0.985168,0.111774,0.078332,-0.718796,0.635846,7.906895,-24.633638,16.710070,,,,,,,5
1508446951.127114,2.165358,1.450651,2.415052,-2.629018,-0.255982,1.637915,0.099289,-0.992791,0.067137,-0.263931,-0.637412,0.136369,7.595629,-25.802057,15.004059,,,,,,,5
1508446951.147127,1.597398,1.499034,2.993329,-3.596645,0.766077,1.215450,0.071676,-0.997426,0.001907,-0.250478,-0.505534,0.180847,6.988545,-26.606155,13.850427,,,,,,,5
1508446951.167130,0.632929,1.482597,-2.298250,-3.724239,1.415291,0.929536,0.052103,-0.996113,-0.071023,-0.026377,-0.280941,0.345406,6.125772,-27.697950,11.994166,,,,,,,5
1508446951.187142,0.285657,1.427298,-1.920206,-3.262776,1.312316,0.716059,0.040298,-0.989722,-0.137211,0.231812,-0.007303,0.425648,5.131459,-28.799309,9.634806,,,,,,,5
1508446951.207162,0.144552,1.372331,-1.757116,-2.844281,0.803648,0.833057,0.028401,-0.980370,-0.195109,0.204875,0.058572,0.508646,4.525919,-29.396818,7.994045,,,,,,,5
1508446951.227175,0.053554,1.319202,-1.648552,-2.700764,0.796591,0.963070,0.013326,-0.968517,-0.248592,0.086513,0.180080,0.647289,4.048221,-29.766191,6.793189,,,,,,,5
1508446951.247170,0.004011,1.267570,-1.580062,-2.521550,0.825590,0.784602,0.001198,-0.954378,-0.298599,-0.047493,0.314775,0.640655,3.241369,-30.239107,4.863282,,,,,,,5
1508446951.267197,-0.020044,1.220770,-1.536999,-2.205153,0.869662,0.676514,-0.006873,-0.939364,-0.342853,-0.051950,0.345507,0.679111,2.725177,-30.483652,3.447019,,,,,,,5
1508446951.287201,-0.029866,1.180419,-1.505753,-1.879231,1.036953,0.566468,-0.011363,-0.924766,-0.380367,-0.046711,0.362098,0.720654,2.493921,-30.568752,2.809491,,,,,,,5
1508446951.307222,-0.028679,1.147070,-1.480969,-1.482120,1.274546,0.520947,-0.011790,-0.911563,-0.410991,-0.073003,0.460910,0.790141,1.903037,-30.716753,1.192093,,,,,,,5
1508446951.327218,-0.019230,1.124893,-1.461283,-0.884642,1.371558,0.404572,-0.008293,-0.902221,-0.431193,-0.020210,0.461151,0.843715,1.591812,-30.753948,0.471628,,,,,,,5
1508446951.347245,-0.006091,1.114591,-1.445458,-0.279705,1.348629,0.319045,-0.002683,-0.897731,-0.440536,0.097044,0.440028,0.850174,1.408105,-30.766094,0.162175,,,,,,,5
1508446951.367258,0.007402,1.116841,-1.433471,0.349831,1.081378,0.240989,0.003246,-0.898720,-0.438511,0.219181,0.441521,0.794255,1.177553,-30.776014,0.109426,,,,,,,5
1508446951.387243,0.012317,1.131865,-1.422236,0.985714,0.545703,0.262869,0.005234,-0.905206,-0.424940,0.295166,0.465478,0.668608,1.062332,-30.778286,0.360860,,,,,,,5
1508446951.407279,0.003068,1.158748,-1.409983,1.528054,-0.227955,0.264631,0.001229,-0.916303,-0.400485,0.336479,0.479688,0.542697,0.937459,-30.773432,0.823792,,,,,,,5
1508446951.427285,-0.023790,1.193362,-1.395596,1.837229,-0.811551,0.203922,-0.008767,-0.929613,-0.368432,0.349923,0.412188,0.155572,0.705538,-30.708351,2.249665,,,,,,,5
1508446951.447305,-0.042473,1.230555,-1.392400,1.774987,-0.896514,-0.102238,-0.014170,-0.942674,-0.333413,0.130136,-0.023711,-0.457206,0.704385,-30.603558,3.389350,,,,,,,5
1508446951.467316,-0.068495,1.249000,-1.390745,0.158400,-1.219806,0.162072,-0.021646,-0.948669,-0.315530,-0.217230,-1.106904,-2.244987,0.815314,-30.516726,4.077539,,,,,,,5
1508446951.487330,-0.112119,1.241532,-1.358159,-0.259283,-0.171502,0.643875,-0.036177,-0.946280,-0.321317,-0.482591,-0.793557,-1.211703,0.656631,-30.526266,4.034538,,,,,,,5
1508446951.507340,-0.132333,1.238544,-1.326744,-0.096533,0.715948,0.479790,-0.043038,-0.945310,-0.323321,-0.284416,-0.036791,-0.454068,0.291133,-30.541782,3.959343,,,,,,,5
1508446951.527346,-0.136638,1.235513,-1.298064,-0.012728,1.483821,0.437408,-0.044819,-0.944317,-0.325970,-0.219417,0.219204,-0.230228,0.111000,-30.547165,3.926826,,,,,,,5
1508446951.547340,-0.106685,1.238820,-1.285409,0.316532,2.370363,0.039388,-0.034704,-0.945400,-0.324059,0.013586,0.074444,0.244927,-0.681004,-30.219873,2.817175,,,,,,,5
1508446951.567376,-0.051217,1.250855,-1.296574,0.752943,1.888580,-0.354524,-0.016101,-0.949254,-0.314098,0.108676,-0.103618,0.318157,-0.743752,-30.193607,3.071487,,,,,,,5
1508446951.587388,-0.018478,1.274946,-1.312924,1.606219,0.421688,-0.171842,-0.005387,-0.956554,-0.291504,0.144929,-0.164158,0.325378,-0.652758,-30.154055,3.456571,,,,,,,5
1508446951.607394,-0.009612,1.318291,-1.312279,2.178688,0.554775,-0.000916,-0.002401,-0.968290,-0.249819,-0.170206,-0.537768,0.246843,-0.621974,-29.960905,4.857817,,,,,,,5
1508446951.627413,0.015261,1.337241,-1.312070,-0.020685,1.788351,0.029775,0.003532,-0.972850,-0.231411,-0.143546,-0.531514,-0.063725,-0.677481,-29.820778,5.648296,,,,,,,5
1508446951.647422,0.064021,1.314936,-1.308852,-1.468234,2.932159,0.021886,0.016191,-0.967446,-0.252559,0.552199,-0.179038,0.043437,-0.904577,-29.849333,5.462612,,,,,,,5
1508446951.667436,0.057612,1.297408,-1.262679,-0.254907,0.838600,0.897020,0.015546,-0.962862,-0.269548,0.465075,0.272554,0.409486,-1.407510,-29.995436,4.464734,,,,,,,5
1508446951.687450,-0.049002,1.319783,-1.175835,1.855490,-2.021720,1.066665,-0.012166,-0.968661,-0.248087,0.322469,0.775104,0.762583,-1.877455,-29.948267,4.606242,,,,,,,5
1508446951.707459,-0.122944,1.369903,-1.138740,2.696846,-1.364600,-0.455931,-0.024471,-0.979889,-0.198038,0.282436,0.906662,0.819285,-2.189620,-29.778481,5.485320,,,,,,,5
1508446951.727473,-0.012467,1.421633,-1.252008,2.373784,0.592372,-1.370668,-0.001853,-0.988896,-0.148600,0.002249,0.324696,0.748056,-1.511021,-29.288635,7.844343,,,,,,,5
1508446951.747473,0.241902,1.466582,-1.486459,2.455927,1.170412,-1.017122,0.024919,-0.994575,-0.100997,-0.220674,-0.246743,0.446014,-0.915161,-28.916695,9.199360,,,,,,,5
1508446951.767494,0.568002,1.509444,-1.808335,2.410172,-0.515974,0.056616,0.032984,-0.998119,-0.051686,-0.423899,-0.735295,-0.264537,-0.708278,-28.563700,10.259353,,,,,,,5
1508446951.787509,1.229576,1.547411,-2.493484,2.101734,-1.141568,0.650919,0.022035,-0.999727,-0.007825,-0.194536,-0.363356,-0.077990,-0.655612,-27.911957,11.921993,,,,,,,5
1508446951.807519,2.833904,1.538274,2.170312,1.906740,-0.535191,0.560329,0.009848,-0.999471,0.030989,0.087122,-0.010218,0.178392,-0.788958,-27.402958,13.042106,,,,,,,5
1508446951.827530,3.128493,1.500500,1.863909,2.040152,-0.667494,0.416525,0.000920,-0.997530,0.070232,0.120708,0.090136,0.162083,-0.867895,-27.144245,13.567528,,,,,,,5
1508446951.847545,-3.122360,1.458281,1.816345,2.074851,-0.731381,0.076045,-0.002159,-0.993677,0.112257,0.182778,0.294336,0.079622,-0.868224,-26.247177,15.230660,,,,,,,5
1508446951.867554,3.121382,1.423179,1.848746,1.499274,-0.090971,-0.364767,0.002972,-0.989124,0.147052,0.253299,0.241108,-0.033862,-0.708830,-25.786230,16.006529,,,,,,,5
1508446951.887545,3.073390,1.399404,1.900658,1.074527,0.171213,-0.489455,0.011623,-0.985348,0.170158,0.088993,0.139508,-0.012642,-0.549186,-25.422354,16.584431,,,,,,,5
1508446951.907571,3.039552,1.375526,1.933312,1.245826,-0.254197,-0.296709,0.019765,-0.980995,0.193022,-0.149205,0.067467,0.105150,-0.246157,-24.852547,17.433624,,,,,,,5
,,,,,,,,,,,,,,,,42.293203,-71.264198,60.388348,-1.000000,-1.000000,1508446951.876886,5
1508446951.927592,3.036101,1.347943,1.928814,1.425332,-0.462489,0.012326,0.023272,-0.975271,0.219784,-0.206896,0.083929,0.069644,-0.082117,-24.506300,17.918583,,,,,,,5
1508446951.947604,3.040897,1.319070,1.912877,1.449846,-0.526227,0.016739,0.025039,-0.968484,0.247814,-0.215011,0.031961,0.003407,0.087278,-23.982258,18.614101,,,,,,,5
1508446951.967599,3.043665,1.292932,1.903878,1.218625,-0.112929,-0.004022,0.026819,-0.961643,0.272989,0.089987,-0.035747,0.062644,0.290221,-23.321850,19.433172,,,,,,,5
1508446951.987627,3.055485,1.269127,1.893181,1.247138,0.110393,0.066655,0.025552,-0.954842,0.296014,0.188315,-0.004677,0.046241,0.301706,-23.202953,19.574802,,,,,,,5
1508446952.007637,3.063756,1.240281,1.881656,1.596676,-0.336126,0.022354,0.025235,-0.945875,0.323548,0.271259,0.035933,-0.135193,0.233589,-22.451767,20.432930,,,,,,,5
1508446952.027652,3.053863,1.203870,1.876319,1.916596,-0.988906,-0.074520,0.031433,-0.933434,0.357369,0.106492,-0.048637,-0.295006,0.506130,-21.567337,21.359653,,,,,,,5
1508446952.047655,3.037051,1.166432,1.868707,1.788820,-1.210631,-0.007599,0.041055,-0.919353,0.391287,-0.063821,-0.133077,-0.354406,0.884599,-20.941832,21.961288,,,,,,,5
1508446952.067673,3.027016,1.135383,1.857944,1.444589,-0.868085,0.076063,0.048221,-0.906696,0.419019,-0.033328,-0.162869,-0.442640,1.398032,-20.165577,22.650299,,,,,,,5
1508446952.087687,3.016002,1.109219,1.849307,1.262857,-1.054391,-0.065059,0.055786,-0.895351,0.441853,0.169693,-0.186283,-0.525517,1.884446,-19.365520,23.303787,,,,,,,5
1508446952.107679,2.985388,1.085440,1.856468,1.072021,-1.290465,-0.465027,0.072577,-0.884509,0.460844,0.167459,-0.326917,-0.455091,2.330994,-18.928980,23.619934,,,,,,,5
1508446952.127708,2.942962,1.066275,1.872667,0.729399,-1.436131,-0.553145,0.095386,-0.875406,0.473884,-0.148944,-0.424017,-0.398887,3.138790,-18.410191,23.934368,,,,,,,5
1508446952.147723,2.906177,1.056685,1.887488,0.160273,-0.966708,-0.372222,0.114702,-0.870730,0.478197,-0.481981,-0.470517,-0.376222,4.174894,-18.006954,24.082378,,,,,,,5
1508446952.167733,2.886290,1.058688,1.896584,-0.304749,-0.431059,-0.072204,0.123748,-0.871713,0.474134,-0.546752,-0.590186,-0.593045,4.546484,-17.978237,24.036505,,,,,,,5
1508446952.187745,2.876182,1.070762,1.901514,-0.866272,-0.234686,0.101122,0.125764,-0.877566,0.462668,-0.523820,-0.642423,-0.717429,4.726187,-18.082821,23.923122,,,,,,,5
1508446952.207743,2.862639,1.102873,1.911523,-2.134656,-0.197391,0.245068,0.124192,-0.892507,0.433599,-0.484422,-0.809459,-1.184713,4.837426,-18.851398,23.299467,,,,,,,5
1508446952.227769,2.834950,1.163894,1.946472,-3.683889,0.485877,0.064567,0.119466,-0.918351,0.377305,0.024180,-0.504912,-1.113114,4.788472,-19.743767,22.558708,,,,,,,5
1508446952.247775,2.766235,1.236436,2.032757,-3.828842,0.475679,-0.434965,0.120307,-0.944620,0.305317,0.547387,-0.145605,-0.596149,4.619211,-20.954006,21.476349,,,,,,,5
1508446952.267770,2.653887,1.290462,2.148867,-2.761527,-0.507436,-0.404539,0.129651,-0.960963,0.244419,0.337528,-0.460546,0.369747,4.692101,-23.113256,19.115507,,,,,,,5
1508446952.287786,2.525194,1.322259,2.250634,-1.697382,-2.169810,-0.193646,0.142205,-0.969273,0.200716,0.281471,-0.742412,0.550214,5.073099,-23.772779,18.186798,,,,,,,5
1508446952.307803,2.415449,1.354296,2.306951,-1.799227,-2.805125,0.993288,0.142634,-0.976655,0.160625,0.249120,-0.990737,0.631810,5.907369,-24.365355,17.119392,,,,,,,5
1508446952.327828,2.308880,1.410142,2.378625,-2.909624,-1.063249,1.635998,0.118335,-0.987123,0.107635,-0.158084,-0.436171,0.356095,6.135796,-25.390774,15.469379,,,,,,,5
1508446952.347841,1.958238,1.474496,2.729640,-3.914898,0.274789,1.341231,0.089024,-0.995367,0.036328,-0.206548,-0.439890,0.234928,5.656101,-26.243427,14.175055,,,,,,,5
1508446952.367852,0.977536,1.490164,-2.557548,-4.137124,0.698802,1.044783,0.066782,-0.996751,-0.045030,0.052023,-0.363585,0.247820,4.927605,-27.481411,11.741645,,,,,,,5
1508446952.387763,0.382828,1.441971,-1.948505,-3.452168,0.452639,0.929935,0.047989,-0.991713,-0.119170,0.246048,-0.112901,0.376677,4.037032,-28.630503,9.020655,,,,,,,5
1508446952.407771,0.186112,1.390200,-1.745611,-2.760700,0.034308,0.795844,0.033236,-0.983737,-0.176515,0.223432,0.053591,0.505891,3.641054,-29.071795,7.677828,,,,,,,5
1508446952.427786,0.072371,1.341420,-1.628806,-2.494750,0.094072,0.914142,0.016441,-0.973808,-0.226775,0.096764,0.163368,0.652510,3.158957,-29.502054,6.084845,,,,,,,5
1508446952.447799,-0.002292,1.292834,-1.546827,-2.447000,0.314056,0.944515,-0.000629,-0.961617,-0.274396,-0.006924,0.298149,0.710812,2.453082,-29.888000,4.250334,,,,,,,5
1508446952.467799,-0.047583,1.245139,-1.489578,-2.281995,0.566612,0.889637,-0.015218,-0.947441,-0.319569,-0.042750,0.383705,0.744389,2.013413,-30.054068,3.174084,,,,,,,5
1508446952.487821,-0.072260,1.203256,-1.447306,-1.875276,0.873133,0.810176,-0.025942,-0.933214,-0.358383,-0.040007,0.393038,0.769577,1.589382,-30.169239,2.160179,,,,,,,5
1508446952.507835,-0.080655,1.170080,-1.414895,-1.462088,1.216635,0.674365,-0.031428,-0.920782,-0.388810,-0.022482,0.456655,0.780427,0.835920,-30.271893,0.537904,,,,,,,5
1508446952.527846,-0.072631,1.144246,-1.391857,-1.118051,1.586587,0.497542,-0.030023,-0.910398,-0.412642,-0.000769,0.489698,0.859831,0.546567,-30.283184,-0.075067,,,,,,,5
1508446952.547856,-0.052614,1.126743,-1.377072,-0.680110,1.671661,0.285079,-0.022593,-0.903018,-0.429009,0.010615,0.490298,0.890862,0.329123,-30.281015,-0.572139,,,,,,,5
1508446952.567869,-0.027666,1.119897,-1.370950,-0.114195,1.382688,0.061676,-0.012054,-0.900055,-0.435609,0.126267,0.551453,0.901475,0.138526,-30.267515,-1.110792,,,,,,,5
1508446952.587855,-0.005204,1.124811,-1.373397,0.445406,0.759273,-0.107729,-0.002245,-0.902186,-0.431341,0.202745,0.533091,0.807882,0.156027,-30.268106,-1.092225,,,,,,,5
1508446952.607872,0.008504,1.141622,-1.381920,1.105025,-0.012640,-0.196566,0.003539,-0.909310,-0.416105,0.298845,0.508492,0.539243,0.245642,-30.277372,-0.771969,,,,,,,5
1508446952.627897,0.005868,1.171799,-1.391621,1.700578,-0.876485,-0.155037,0.002280,-0.921451,-0.388488,0.302438,0.265750,0.028747,0.392267,-30.285074,0.189852,,,,,,,5
1508446952.647918,-0.012707,1.207831,-1.393997,1.767441,-1.126547,0.040174,-0.004511,-0.934848,-0.355020,0.254573,0.071170,-0.316428,0.466333,-30.258305,1.262200,,,,,,,5
1508446952.667928,-0.073447,1.226661,-1.364093,0.303440,-1.851729,0.841006,-0.024757,-0.941368,-0.336473,-0.009834,-0.853798,-2.502684,0.419670,-30.222418,1.950624,,,,,,,5
1508446952.687925,-0.142451,1.227084,-1.314339,0.112537,-0.495758,0.632830,-0.047842,-0.941510,-0.333571,-0.348887,-0.568347,-0.686708,-0.125884,-30.211731,2.147326,,,,,,,5
1508446952.707953,-0.166869,1.225469,-1.292633,-0.094695,-0.061316,0.283277,-0.056224,-0.940965,-0.333802,-0.246861,-0.056594,-0.482619,-0.344733,-30.208208,2.172763,,,,,,,5
1508446952.727958,-0.166482,1.223238,-1.281755,-0.006546,0.949416,0.122928,-0.056443,-0.940207,-0.335894,-0.086502,0.349707,-0.112958,-0.512650,-30.209824,2.116449,,,,,,,5
1508446952.747953,-0.128468,1.229082,-1.289457,0.415489,1.768765,-0.337198,-0.042932,-0.942182,-0.332341,0.159097,-0.181262,0.155354,-0.572136,-30.203753,2.186672,,,,,,,5
1508446952.767989,-0.057859,1.243474,-1.324712,0.836878,1.749936,-0.796897,-0.018592,-0.946907,-0.320971,0.154715,-0.408120,0.133471,-0.341185,-30.182415,2.506172,,,,,,,5
1508446952.787999,-0.000157,1.268050,-1.358445,1.364317,1.164124,-0.243578,-0.000047,-0.954521,-0.298143,0.123857,-0.827721,0.332292,-0.058149,-30.143671,2.954872,,,,,,,5
1508446952.808013,0.015620,1.287791,-1.338184,0.608623,2.270889,0.499536,0.004362,-0.960220,-0.279209,-0.378690,-0.367187,0.522663,-0.173323,-30.041149,3.856800,,,,,,,5
1508446952.828025,0.034785,1.282795,-1.302641,-0.851278,2.664598,0.463294,0.009878,-0.958814,-0.283864,-0.154776,-0.129260,0.230397,-0.550591,-30.021866,3.969891,,,,,,,5
1508446952.848015,0.037354,1.259407,-1.255739,-0.981476,1.938294,0.841784,0.011442,-0.951909,-0.306168,0.369921,0.198338,0.431763,-0.917748,-30.063217,3.568789,,,,,,,5
1508446952.868049,-0.020952,1.267199,-1.182928,1.259511,-0.455450,1.091651,-0.006263,-0.954267,-0.298889,0.461738,0.577986,0.690948,0.443140,-30.904587,1.188234,,,,,,,5
1508446952.888057,-0.091487,1.312900,-1.145149,2.711581,-2.070999,-0.132688,-0.023301,-0.966929,-0.253981,0.299561,0.696680,0.928694,0.073361,-30.866011,1.996427,,,,,,,5
1508446952.908071,-0.070690,1.369034,-1.189321,2.670569,-0.233885,-0.951491,-0.014154,-0.979715,-0.199895,0.134546,0.151514,0.891149,0.335249,-30.711681,3.658141,,,,,,,5
1508446952.928085,0.042080,1.416555,-1.282511,2.124084,1.545639,-0.696988,0.006463,-0.988128,-0.153495,-0.060220,-0.259415,0.247886,0.986783,-30.401100,5.612591,,,,,,,5
1508446952.948085,0.118143,1.450719,-1.336929,1.530223,0.451254,0.071352,0.014119,-0.992799,-0.118954,-0.284490,-0.417418,-0.408435,1.085609,-30.214546,6.527205,,,,,,,5
1508446952.968107,0.032035,1.484473,-1.268447,1.871979,-1.534505,0.655086,0.002761,-0.996276,-0.086172,-0.097244,-0.148163,-0.050776,0.972312,-29.999664,7.468363,,,,,,,5
1508446952.988121,-0.331142,1.528850,-0.943301,2.527006,-2.041492,0.681405,-0.013634,-0.999120,-0.039656,0.129005,0.047887,0.100569,0.820379,-29.590567,8.968112,,,,,,,5
1508446953.008131,-2.062909,1.540775,0.755806,2.667362,-1.324829,0.585149,-0.026455,-0.999549,0.014183,0.162594,0.114295,0.260628,0.801086,-29.090424,10.478896,,,,,,,5
1508446953.028143,-2.634587,1.497765,1.309460,2.313885,-0.750533,0.410177,-0.035430,-0.997334,0.063788,0.106841,0.311223,0.260385,0.752819,-28.667706,11.588689,,,,,,,5
1508446953.048157,-2.821859,1.455657,1.488402,2.222058,-0.353058,-0.164178,-0.036110,-0.993379,0.109063,0.064049,0.299119,0.171745,0.752428,-27.958525,13.208198,,,,,,,5
1508446953.068168,-2.968347,1.417054,1.630171,2.011882,-0.245984,-0.562981,-0.026398,-0.988205,0.150845,0.023163,0.070053,0.088459,0.945497,-27.508926,14.109098,,,,,,,5
1508446953.088155,-3.058984,1.382796,1.718415,1.662438,-0.135013,-0.476344,-0.015421,-0.982380,0.186258,-0.031240,-0.087521,0.055671,1.224482,-27.062822,14.926689,,,,,,,5
1508446953.108183,-3.107837,1.352650,1.768006,1.474787,0.046013,-0.381929,-0.007304,-0.976300,0.216297,-0.167531,-0.089572,0.029477,1.749122,-27.436136,14.567921,,,,,,,5
1508446953.128203,-3.138475,1.324110,1.798698,1.419354,-0.132118,-0.293082,-0.000761,-0.969727,0.244191,-0.240511,-0.056549,-0.088200,1.937313,-26.990229,15.355774,,,,,,,5
1508446953.148216,3.126084,1.296043,1.813136,1.386105,-0.243050,-0.123082,0.004207,-0.962492,0.271277,-0.161281,0.007887,-0.173056,2.085726,-26.650621,15.919155,,,,,,,5
1508446953.168228,3.120658,1.269032,1.813416,1.330539,-0.297808,0.006317,0.006222,-0.954814,0.297140,0.178044,0.027507,-0.119039,2.241655,-26.085196,16.809608,,,,,,,5
1508446953.188239,3.114259,1.242292,1.810302,1.371135,-0.601622,0.016005,0.008817,-0.946526,0.322507,0.314760,0.070320,-0.111723,2.369005,-25.630579,17.478178,,,,,,,5
1508446953.208249,3.100738,1.211251,1.805452,1.677991,-1.075529,0.032021,0.014371,-0.936057,0.351555,0.331653,0.082007,-0.148430,2.480636,-25.383591,17.819798,,,,,,,5
1508446953.228263,3.081815,1.175356,1.801241,1.816623,-1.146027,-0.048901,0.023013,-0.922827,0.384526,0.096997,-0.035028,-0.359578,3.051148,-24.450134,18.997547,,,,,,,5
1508446953.248255,3.059228,1.141666,1.800609,1.581427,-1.163108,-0.108351,0.034231,-0.909328,0.414669,-0.073813,-0.268116,-0.381314,3.414543,-23.933653,19.584345,,,,,,,5
1508446953.268285,3.040333,1.113423,1.793880,1.322378,-1.309856,0.114060,0.044639,-0.897216,0.439331,-0.057151,-0.354631,-0.407562,3.924903,-23.310738,20.229433,,,,,,,5
1508446953.288299,3.027117,1.092351,1.779715,0.910105,-1.216876,0.210814,0.052589,-0.887712,0.457386,-0.012444,-0.278716,-0.441898,4.507893,-22.698345,20.796379,,,,,,,5
1508446953.308284,3.011037,1.079982,1.772711,0.487697,-1.105813,0.009368,0.061362,-0.881949,0.467333,-0.105765,-0.323617,-0.456759,4.815349,-22.461233,20.984060,,,,,,,5
1508446953.328321,2.987261,1.074287,1.773993,0.146114,-1.117707,-0.102064,0.073226,-0.879251,0.470698,-0.246810,-0.451575,-0.494669,5.288204,-22.271992,21.071751,,,,,,,5
1508446953.348335,2.962520,1.076287,1.781155,-0.312839,-0.776703,-0.172674,0.084534,-0.880202,0.467011,-0.375229,-0.633562,-0.637574,5.900727,-22.234753,20.948092,,,,,,,5
1508446953.368345,2.939159,1.089317,1.792237,-0.949808,-0.648512,-0.066036,0.093106,-0.886311,0.453634,-0.577435,-0.829174,-0.868002,6.183911,-22.361088,20.730808,,,,,,,5
1508446953.388357,2.925255,1.122290,1.799433,-2.149551,-0.254595,0.300213,0.093078,-0.901096,0.423513,-0.512054,-0.904690,-0.994725,6.419924,-22.805519,20.167257,,,,,,,5
1508446953.408373,2.905012,1.181387,1.828869,-3.487778,0.870741,-0.112456,0.088980,-0.925133,0.369067,0.170923,-0.437660,-0.776401,6.309014,-24.052952,18.699657,,,,,,,5
1508446953.428382,2.853506,1.251517,1.909538,-3.671247,1.115587,-0.601438,0.089180,-0.949462,0.300947,0.605858,-0.153977,-0.268217,6.058537,-25.335278,17.013031,,,,,,,5
1508446953.448387,2.748716,1.305212,2.024977,-2.703697,-0.249113,-0.645591,0.100487,-0.964939,0.242476,0.367485,-0.373531,0.336061,6.059436,-25.888588,16.158266,,,,,,,5
1508446953.468382,2.623162,1.343912,2.132107,-2.128110,-1.532671,-0.026388,0.111463,-0.974372,0.195385,0.047778,-0.706719,0.508121,6.673763,-26.989626,13.965899,,,,,,,5
1508446953.488417,2.524029,1.385203,2.198241,-2.160399,-1.687961,0.825023,0.106852,-0.982827,0.150445,-0.035899,-0.639548,0.407386,6.941079,-27.591011,12.592970,,,,,,,5
1508446953.508414,2.401144,1.440477,2.303047,-3.065599,-0.419989,1.165617,0.087667,-0.991520,0.095925,-0.146551,-0.516475,0.147788,6.799820,-28.109644,11.473263,,,,,,,5
1508446953.528442,1.922192,1.499977,2.789402,-3.834523,0.578364,0.981148,0.066436,-0.997493,0.024356,-0.126998,-0.321858,0.174908,6.048471,-29.135021,9.088009,,,,,,,5
1508446953.548453,0.782161,1.498685,-2.334630,-3.767074,0.819559,0.700794,0.050781,-0.997401,-0.051111,-0.037963,-0.207357,0.295129,5.558026,-29.692320,7.449824,,,,,,,5
1508446953.568464,0.326729,1.446379,-1.866236,-3.166121,0.353538,0.586151,0.039828,-0.992270,-0.117531,0.252027,-0.027063,0.443047,5.045276,-30.237329,5.317375,,,,,,,5
1508446953.588468,0.167743,1.394867,-1.704515,-2.594083,-0.080299,0.556473,0.029221,-0.984564,-0.172566,0.260665,0.065939,0.510350,4.611361,-30.613842,3.090862,,,,,,,5
1508446953.608463,0.072466,1.349284,-1.609366,-2.262145,-0.089500,0.709335,0.015907,-0.975566,-0.219129,0.095467,0.151225,0.580350,4.338414,-30.748365,1.934330,,,,,,,5
1508446953.628500,0.006674,1.306403,-1.541707,-2.146204,0.087904,0.725332,0.001744,-0.965251,-0.261318,-0.028065,0.226115,0.655483,3.901234,-30.862745,0.544655,,,,,,,5
1508446953.648514,-0.031294,1.263133,-1.493971,-2.159177,0.601958,0.690477,-0.009475,-0.953044,-0.302684,-0.085968,0.242183,0.707332,3.352452,-30.912449,-1.098607,,,,,,,5
1508446953.668513,-0.047628,1.219624,-1.456973,-2.132797,1.112890,0.680434,-0.016378,-0.938970,-0.343609,-0.112650,0.304906,0.711376,3.051209,-30.894279,-2.063731,,,,,,,5
1508446953.688535,-0.048090,1.178662,-1.427792,-1.909188,1.450232,0.577125,-0.018371,-0.924095,-0.381720,-0.077439,0.414238,0.738730,2.699684,-30.819351,-3.302221,,,,,,,5
1508446953.708548,-0.036600,1.145747,-1.407497,-1.430845,1.507807,0.405435,-0.015089,-0.911019,-0.412089,-0.016313,0.485329,0.805339,2.433431,-30.676342,-4.589750,,,,,,,5
1508446953.728560,-0.017795,1.124609,-1.396415,-0.816031,1.366485,0.185742,-0.007679,-0.902099,-0.431461,0.053745,0.516585,0.802860,2.383186,-30.595619,-5.123857,,,,,,,5
1508446953.748558,-0.000318,1.117023,-1.391809,-0.094741,0.869578,0.066745,-0.000139,-0.898799,-0.438360,0.096651,0.520000,0.785956,2.404595,-30.537739,-5.448834,,,,,,,5
1508446953.768586,0.007436,1.125010,-1.390046,0.679695,0.226370,0.041773,0.003206,-0.902272,-0.431156,0.234267,0.465458,0.692005,2.473758,-30.543863,-5.383143,,,,,,,5
1508446953.788595,0.003102,1.146612,-1.388421,1.298632,-0.374210,0.031522,0.001277,-0.911375,-0.411576,0.287465,0.409910,0.486832,2.448477,-30.640320,-4.816756,,,,,,,5
1508446953.808585,-0.008026,1.179440,-1.390939,1.854930,-0.764992,-0.143059,-0.003061,-0.924393,-0.381430,0.257547,0.359909,0.341132,2.421060,-30.703897,-4.408459,,,,,,,5
1508446953.828602,-0.007341,1.222147,-1.408480,2.254689,-0.764036,-0.416592,-0.002508,-0.939835,-0.341620,-0.002284,-0.102981,-0.497415,2.516520,-30.892799,-2.706940,,,,,,,5
1508446953.848632,-0.017297,1.262330,-1.416580,1.675718,-0.920233,0.092782,-0.005251,-0.952800,-0.303552,-0.137296,-0.415409,-1.245078,2.656593,-30.966999,-1.418738,,,,,,,5
1508446953.868643,-0.078602,1.268018,-1.365212,-0.361228,-0.285395,1.177394,-0.023413,-0.954512,-0.297252,-0.488031,-0.906832,-2.103413,2.480828,-31.000074,-0.930725,,,,,,,5
1508446953.888656,-0.147137,1.260259,-1.284548,0.099535,1.012838,0.961777,-0.044798,-0.952170,-0.302268,-0.300859,-0.122339,-0.422356,1.527257,-31.053799,-1.163819,,,,,,,5
1508446953.908667,-0.149943,1.264136,-1.255212,0.254035,1.282091,0.212611,-0.045095,-0.953347,-0.298489,-0.163722,0.007546,-0.203281,1.222512,-31.071543,-1.044103,,,,,,,5
1508446953.928678,-0.134357,1.269445,-1.241407,0.329548,1.480677,0.203802,-0.039759,-0.954936,-0.294136,0.094965,0.067088,0.282737,1.119923,-31.081362,-0.848609,,,,,,,5
1508446953.948692,-0.119194,1.283261,-1.225893,1.009264,1.331986,0.013388,-0.033722,-0.958946,-0.281578,0.302811,-0.289528,0.131843,1.004613,-31.093992,-0.424014,,,,,,,5
1508446953.968681,-0.117937,1.309998,-1.223878,1.473540,-0.485252,-0.102341,-0.030340,-0.966184,-0.256061,0.219106,-0.530550,0.061603,1.042842,-31.095354,0.129523,,,,,,,5
1508446953.988714,-0.151743,1.335767,-1.192107,0.969695,0.459990,0.361638,-0.035201,-0.972507,-0.230196,-0.052460,-0.531277,0.213472,1.084574,-31.083748,0.805988,,,,,,,5
1508446954.008727,-0.126109,1.332373,-1.178549,-0.759852,2.595914,-0.021555,-0.029704,-0.971712,-0.234295,0.042720,-0.338912,0.326138,0.805562,-31.069117,1.444459,,,,,,,5
1508446954.028712,-0.053007,1.311450,-1.195147,-1.053841,2.718353,0.011248,-0.013587,-0.966558,-0.256088,0.430778,0.065679,0.271271,0.809123,-31.085144,1.041367,,,,,,,5
1508446954.048749,-0.057589,1.303659,-1.162271,0.067382,0.208830,0.703236,-0.015193,-0.964530,-0.263534,0.280208,0.465843,0.644393,0.766521,-31.097717,0.608090,,,,,,,5
1508446954.068764,-0.148808,1.316472,-1.089829,1.115696,-1.376344,0.811841,-0.037301,-0.967833,-0.248811,0.075295,0.897704,1.014833,0.377994,-31.105648,0.566682,,,,,,,5
1508446954.088774,-0.192351,1.352695,-1.056424,2.326825,0.169318,-0.531348,-0.041364,-0.976310,-0.212386,-0.076449,0.282295,0.677214,-0.128433,-31.063396,1.753357,,,,,,,5
1508446954.108785,-0.107996,1.411633,-1.129929,2.937969,0.517126,-1.227706,-0.017083,-0.987360,-0.157569,-0.163230,-0.070135,0.400779,0.083986,-31.010902,2.518393,,,,,,,5
1508446954.128777,-0.023127,1.466201,-1.217416,2.449288,-0.411296,-0.375323,-0.002414,-0.994535,-0.104377,-0.353985,-0.675097,-0.019799,0.774793,-30.804253,4.303851,,,,,,,5
1508446954.148810,-0.059344,1.506806,-1.191868,1.787207,-0.484548,0.145140,-0.003793,-0.997953,-0.063834,0.003976,-0.297670,0.212516,1.139945,-30.412945,6.463653,,,,,,,5
1508446954.168815,-0.190224,1.533273,-1.062809,1.132060,0.154276,0.149798,-0.007093,-0.999296,-0.036837,0.091596,-0.042421,0.195132,1.121615,-30.300669,6.974009,,,,,,,5
1508446954.188810,-0.635578,1.554735,-0.610858,1.385418,0.309191,0.134971,-0.009534,-0.999871,-0.012925,0.189283,0.269784,0.094803,0.954445,-30.034191,8.066088,,,,,,,5
1508446954.208846,-2.706175,1.541924,1.456517,2.270702,-0.578394,0.114988,-0.012176,-0.999583,0.026175,0.205658,0.279277,0.048288,0.870118,-29.831909,8.793491,,,,,,,5
1508446954.228843,-2.996260,1.495916,1.723312,2.275766,-1.398247,-0.111316,-0.010834,-0.997198,0.074021,0.243302,0.134863,0.095977,0.953006,-29.397959,10.142840,,,,,,,5
1508446954.248870,-3.115559,1.462448,1.821336,1.332611,-0.728459,-0.400780,-0.002815,-0.994136,0.108099,0.168357,-0.015553,0.136087,1.436195,-28.839813,11.585672,,,,,,,5
1508446954.268882,3.086673,1.442188,1.900668,0.892629,0.025758,-0.478373,0.007040,-0.991741,0.128060,0.072428,-0.018467,0.079139,1.701308,-28.620895,12.082020,,,,,,,5
1508446954.288892,3.057076,1.420689,1.926755,1.237106,-0.366091,-0.079741,0.012624,-0.988755,0.149010,-0.161184,0.136140,0.122993,1.952979,-28.374786,12.612802,,,,,,,5
1508446954.308906,3.083061,1.391253,1.890799,1.604954,-0.445834,0.259694,0.010447,-0.983925,0.178274,-0.209436,0.146538,0.076181,2.058420,-27.939548,13.534027,,,,,,,5
1508446954.328913,3.104946,1.358318,1.863115,1.644441,-0.182842,0.132450,0.007727,-0.977511,0.210741,-0.169439,0.033389,-0.002291,2.034101,-27.605328,14.206816,,,,,,,5
1508446954.348928,3.115112,1.326863,1.849053,1.527351,-0.213620,0.122942,0.006395,-0.970396,0.241437,-0.010484,0.004819,-0.056668,2.019089,-27.250687,14.877794,,,,,,,5
1508446954.368943,3.120079,1.296847,1.835703,1.514753,-0.541905,0.114072,0.005820,-0.962710,0.270473,0.227335,0.053240,-0.073085,2.041558,-26.546810,16.097340,,,,,,,5
1508446954.388927,3.108290,1.265327,1.830698,1.625961,-0.984399,-0.030150,0.010014,-0.953706,0.300574,0.422588,0.123780,-0.191550,2.244803,-26.038490,16.881447,,,,,,,5
1508446954.408964,3.081950,1.229675,1.833538,1.878730,-1.283596,-0.186937,0.019941,-0.942380,0.333949,0.376360,0.075131,-0.290401,2.433018,-25.754894,17.285576,,,,,,,5
1508446954.428978,3.048458,1.190229,1.837437,1.953503,-1.610989,-0.231287,0.034545,-0.928454,0.369837,0.093568,-0.031537,-0.360026,2.960438,-25.092892,18.155107,,,,,,,5
1508446954.448970,3.010729,1.154956,1.843328,1.581039,-1.570858,-0.355712,0.052713,-0.914777,0.400505,-0.090402,-0.292819,-0.273490,4.043459,-24.005966,19.374969,,,,,,,5
1508446954.469000,2.978740,1.128235,1.849509,1.131306,-1.121944,-0.249416,0.069435,-0.903658,0.422589,-0.104423,-0.334349,-0.295788,4.608784,-23.549978,19.803612,,,,,,,5
1508446954.488993,2.963426,1.110709,1.846893,0.733603,-0.830904,-0.017170,0.078693,-0.896014,0.436998,-0.231647,-0.243406,-0.325334,5.225589,-23.012764,20.276371,,,,,,,5
1508446954.509023,2.950853,1.098031,1.841799,0.603682,-0.838219,-0.002277,0.086327,-0.890313,0.447092,-0.315041,-0.297508,-0.286478,5.577333,-22.736092,20.493631,,,,,,,5
1508446954.529014,2.937715,1.088152,1.841977,0.366329,-0.493352,-0.149845,0.093970,-0.885771,0.454511,-0.429282,-0.468218,-0.381589,5.749444,-22.613390,20.581638,,,,,,,5
1508446954.549040,2.929975,1.085963,1.846007,-0.088662,-0.102938,-0.064932,0.097892,-0.884753,0.455664,-0.480140,-0.829847,-1.075919,6.096328,-22.405676,20.708595,,,,,,,5
1508446954.569060,2.922059,1.096351,1.849377,-0.833097,-0.367507,0.111859,0.099489,-0.889546,0.445881,-0.611483,-0.870235,-1.126957,6.174706,-22.543875,20.534655,,,,,,,5
1508446954.589073,2.915293,1.124659,1.849086,-1.728122,-0.172608,0.420848,0.096813,-0.902121,0.420483,-0.424847,-0.785700,-0.961117,6.220822,-22.745247,20.297302,,,,,,,5
1508446954.609084,2.910360,1.174779,1.862021,-2.941855,0.579257,0.161183,0.088404,-0.922605,0.375480,0.747197,-0.257617,-0.381248,5.988928,-23.942411,18.945160,,,,,,,5
,,,,,,,,,,,,,,,,42.293167,-71.264199,60.388348,-1.000000,-1.000000,1508446954.597672,5
1508446954.629096,2.873643,1.236272,1.910474,-3.173162,0.070477,-0.155211,0.086924,-0.944567,0.316604,0.811574,-0.136824,-0.051650,5.788232,-25.084044,17.473194,,,,,,,5
1508446954.649083,2.779836,1.287580,1.989849,-2.573542,-1.499800,-0.411247,0.098901,-0.960162,0.261359,0.716971,-0.217542,0.071511,5.862934,-25.603567,16.676594,,,,,,,5
,,,,,,,,,,,,,,,,42.293155,-71.264194,60.388348,-1.000000,-1.000000,1508446954.638756,5
1508446954.669121,2.651410,1.325673,2.074380,-1.965589,-2.736464,-0.047280,0.114249,-0.970107,0.214100,0.153604,-0.498902,0.397106,7.603958,-27.962225,13.659100,,,,,,,5
,,,,,,,,,,,,,,,,42.293142,-71.264189,60.388348,-1.000000,-1.000000,1508446954.666259,5
1508446954.689112,2.540492,1.359279,2.129423,-1.711123,-2.769475,0.575542,0.118734,-0.977713,0.173144,-0.182272,-0.576242,0.455778,8.118548,-28.340063,12.538229,,,,,,,5
1508446954.709142,2.452927,1.402089,2.175998,-2.218459,-1.565748,1.135514,0.106707,-0.985803,0.129641,-0.398440,-0.439719,0.285841,8.366933,-28.722328,11.458597,,,,,,,5
,,,,,,,,,,,,,,,,42.293130,-71.264184,60.388348,-1.000000,-1.000000,1508446954.686420,5
1508446954.729156,2.292875,1.459070,2.324438,-3.049848,-0.164784,1.241509,0.083669,-0.993765,0.073691,-0.381841,-0.284586,0.185098,7.818594,-29.717604,9.055982,,,,,,,5
1508446954.749141,1.731330,1.509298,2.895405,-3.240506,0.682347,1.038274,0.060670,-0.998110,0.009824,-0.063538,-0.405669,0.308749,7.640750,-29.900242,8.594854,,,,,,,5
1508446954.769178,0.642068,1.501226,-2.279453,-3.343687,0.954949,0.903471,0.041629,-0.997581,-0.055671,0.205060,-0.280632,0.490043,6.534751,-30.832979,5.735988,,,,,,,5
1508446954.789192,0.239489,1.448097,-1.855279,-3.094062,0.960237,0.630831,0.029032,-0.992482,-0.118898,0.275976,-0.096355,0.454241,5.784499,-31.332935,3.326246,,,,,,,5
1508446954.809203,0.103408,1.393773,-1.701009,-2.731046,0.741550,0.729490,0.018178,-0.984372,-0.175159,0.140163,0.097043,0.453846,5.449372,-31.506088,1.986923,,,,,,,5
1508446954.829209,0.020588,1.342646,-1.602802,-2.565149,0.678193,0.863904,0.004656,-0.974086,-0.226128,0.031461,0.264400,0.556023,4.111706,-31.196556,1.917832,,,,,,,5
1508446954.849208,-0.028477,1.291912,-1.535195,-2.503474,0.913923,0.842232,-0.007838,-0.961363,-0.275172,-0.031560,0.376921,0.645076,3.421532,-31.338511,-0.011312,,,,,,,5
1508446954.869238,-0.048931,1.245104,-1.490990,-2.159403,1.154334,0.683413,-0.015650,-0.947429,-0.319582,-0.041937,0.379879,0.665026,3.049659,-31.357220,-1.110730,,,,,,,5
1508446954.889244,-0.053000,1.207579,-1.461270,-1.653456,1.223726,0.553484,-0.018821,-0.934759,-0.354784,-0.055337,0.404134,0.686282,2.754770,-31.335516,-2.075093,,,,,,,5
1508446954.909239,-0.048024,1.180561,-1.438662,-1.134782,1.334602,0.440727,-0.018262,-0.924820,-0.379967,0.016019,0.440979,0.655282,2.353644,-31.244495,-3.471498,,,,,,,5
1508446954.929274,-0.040314,1.163859,-1.420102,-0.620320,1.128065,0.391580,-0.015952,-0.918337,-0.395477,0.070624,0.443316,0.647904,2.194959,-31.192278,-4.004169,,,,,,,5
1508446954.949271,-0.045328,1.158752,-1.398478,0.010178,0.459858,0.486783,-0.018147,-0.916304,-0.400072,0.173146,0.437483,0.619493,2.114671,-31.178482,-4.152089,,,,,,,5
1508446954.969278,-0.073505,1.166769,-1.367644,0.672538,-0.243227,0.637589,-0.028871,-0.919485,-0.392063,0.236588,0.447134,0.617359,1.681758,-31.220016,-4.036304,,,,,,,5
1508446954.989310,-0.118662,1.183841,-1.331403,1.022186,-0.787604,0.558078,-0.044674,-0.926062,-0.374717,0.274823,0.480521,0.491492,1.252005,-31.301321,-3.531164,,,,,,,5
1508446955.009297,-0.168726,1.205475,-1.300886,1.237933,-1.212501,0.297610,-0.059992,-0.934009,-0.352176,0.277567,0.495319,0.388873,1.057952,-31.342749,-3.212823,,,,,,,5
1508446955.029336,-0.216648,1.233992,-1.276751,1.630214,-1.248637,0.048477,-0.071038,-0.943816,-0.322747,0.129082,0.210448,-0.011954,0.713515,-31.452051,-2.017101,,,,,,,5
1508446955.049342,-0.263393,1.266893,-1.253710,1.606950,-1.277599,-0.034787,-0.077911,-0.954176,-0.288927,-0.110535,-0.310488,-0.808547,0.684644,-31.493189,-1.232709,,,,,,,5
1508446955.069356,-0.319710,1.283771,-1.217891,0.398377,-0.895787,0.513451,-0.088976,-0.959090,-0.268755,-0.530393,-0.933366,-1.721174,0.651103,-31.516453,-0.314308,,,,,,,5
1508446955.089371,-0.360464,1.275177,-1.171048,-0.315387,0.970015,0.808164,-0.102755,-0.956622,-0.272609,-0.646283,-0.451764,-0.799381,0.153150,-31.523773,-0.194227,,,,,,,5
1508446955.109382,-0.358108,1.266189,-1.138707,-0.203542,1.853900,0.528663,-0.105122,-0.953965,-0.280892,-0.354350,0.098786,-0.323783,-0.179917,-31.522461,-0.333694,,,,,,,5
1508446955.129393,-0.348570,1.260225,-1.108382,-0.052378,1.938782,0.521457,-0.104380,-0.952159,-0.287225,-0.058324,0.281276,0.063332,-0.504819,-31.517244,-0.466735,,,,,,,5
1508446955.149406,-0.336550,1.262626,-1.083270,0.484018,1.623768,0.138079,-0.100165,-0.952890,-0.286300,0.120138,0.027216,0.182693,-0.830524,-31.510612,-0.448086,,,,,,,5
1508446955.169418,-0.327147,1.283726,-1.078120,1.384574,0.040305,-0.500920,-0.090986,-0.959078,-0.268126,0.110441,-0.436140,0.168929,-0.848931,-31.511036,-0.378616,,,,,,,5
1508446955.189429,-0.337070,1.325129,-1.070209,2.203242,0.249187,-0.490810,-0.080433,-0.969975,-0.229518,-0.077297,-0.700984,0.433711,-0.480849,-31.510262,0.825532,,,,,,,5
1508446955.209440,-0.323792,1.351857,-1.047638,0.507300,2.780826,-0.111068,-0.069104,-0.976128,-0.205908,0.123852,-0.594215,0.153830,-0.246248,-31.441755,2.272608,,,,,,,5
1508446955.229453,-0.187899,1.337633,-1.104422,-1.545471,4.373693,-0.601685,-0.043160,-0.972940,-0.226989,0.425256,-0.321371,0.278381,-0.247483,-31.445082,2.225970,,,,,,,5
1508446955.249443,-0.088112,1.301533,-1.133250,-1.659185,2.867439,0.337443,-0.023409,-0.963967,-0.264989,0.376193,0.147149,0.664907,-0.108098,-31.488636,1.504488,,,,,,,5
1508446955.269468,-0.124581,1.287909,-1.068614,0.185841,0.327205,1.166347,-0.034684,-0.960253,-0.276966,0.348298,0.677645,0.926747,-0.598386,-31.518297,0.219660,,,,,,,5
1508446955.289489,-0.212000,1.316020,-0.993154,2.287778,-1.137662,0.295657,-0.053031,-0.967720,-0.246386,0.327964,0.929283,0.957751,-1.107300,-31.500002,0.577208,,,,,,,5
1508446955.309501,-0.237002,1.374196,-0.984817,3.052119,-0.374732,-1.056070,-0.045863,-0.980736,-0.189876,0.186671,0.737679,0.907970,-1.228751,-31.457132,1.657816,,,,,,,5
1508446955.329514,-0.130491,1.440394,-1.084769,3.012776,0.751191,-1.407974,-0.016920,-0.991510,-0.128928,0.084517,-0.372794,0.279395,-0.215307,-31.198200,4.520534,,,,,,,5
1508446955.349525,0.040430,1.489069,-1.240581,1.874300,0.499742,-0.577479,0.003300,-0.996662,-0.081569,-0.114826,-0.934231,-0.645039,0.399607,-30.909979,6.182471,,,,,,,5
1508446955.369536,0.024647,1.512962,-1.231643,0.957410,-0.714637,0.459614,0.001425,-0.998328,-0.057785,-0.058401,-0.700113,-0.426941,0.519569,-30.798458,6.707779,,,,,,,5
1508446955.389549,-0.397800,1.535090,-0.828456,1.560839,-1.122979,0.737925,-0.013829,-0.999363,-0.032911,0.180440,0.181980,0.215696,0.254684,-30.564196,7.718445,,,,,,,5
1508446955.409541,-1.977951,1.542751,0.723870,2.468724,-1.570632,0.454406,-0.025749,-0.999607,0.011104,0.232430,0.272358,0.218113,0.092725,-30.343229,8.549224,,,,,,,5
1508446955.429571,-2.683564,1.501712,1.399044,2.377477,-1.448119,0.235472,-0.030524,-0.997615,0.061914,0.164358,0.418925,0.219656,0.098964,-30.009815,9.654560,,,,,,,5
1508446955.449583,-2.888719,1.461243,1.584999,2.070336,-0.769886,-0.285080,-0.027354,-0.994005,0.105857,0.082820,0.273439,0.181634,0.261067,-29.506029,11.096640,,,,,,,5
1508446955.469596,-3.033608,1.425091,1.721423,1.849226,-0.305647,-0.621949,-0.015648,-0.989404,0.144344,-0.026405,0.034967,0.136967,0.482978,-29.134144,12.032367,,,,,,,5
1508446955.489607,-3.118355,1.391440,1.805104,1.660425,-0.024689,-0.507238,-0.004145,-0.983959,0.178348,-0.201650,-0.070912,0.009625,1.103351,-28.398672,13.642121,,,,,,,5
1508446955.509620,3.140590,1.361270,1.829518,1.426438,-0.052666,-0.037509,0.000209,-0.978130,0.207996,-0.361155,-0.041020,-0.130314,1.377235,-27.820375,14.762767,,,,,,,5
1508446955.529632,3.140433,1.332280,1.823239,1.484990,-0.493105,0.093605,0.000274,-0.971690,0.236261,-0.239639,-0.051656,-0.163340,1.419490,-27.386387,15.549285,,,,,,,5
1508446955.549628,3.131115,1.302071,1.820674,1.484154,-0.585893,-0.010817,0.002782,-0.964110,0.265488,-0.151418,-0.043992,-0.185609,1.524821,-27.029228,16.152559,,,,,,,5
1508446955.569639,3.125062,1.275183,1.815704,1.261378,-0.538591,0.115149,0.004816,-0.956624,0.291287,0.199927,0.079197,-0.174801,1.747996,-26.438042,17.081680,,,,,,,5
1508446955.589637,3.126701,1.250300,1.800548,1.284642,-0.736741,0.263191,0.004691,-0.949079,0.315003,0.200051,0.071653,-0.198517,1.747996,-26.438042,17.081680,,,,,,,5
1508446955.609667,3.126187,1.220954,1.780614,1.591398,-1.099013,0.304845,0.005280,-0.939427,0.342709,0.305633,0.114460,-0.256115,1.930626,-25.781771,18.038357,,,,,,,5
1508446955.629667,3.116235,1.187352,1.765227,1.684280,-1.250261,0.205411,0.009486,-0.927382,0.373996,0.171300,-0.072588,-0.322422,2.335452,-24.906750,19.183556,,,,,,,5
1508446955.649704,3.101445,1.156306,1.754025,1.452256,-1.252440,0.154516,0.016164,-0.915322,0.402399,0.046351,-0.150367,-0.303156,2.632699,-24.433483,19.745462,,,,,,,5
1508446955.669700,3.086876,1.131735,1.744434,1.110453,-1.113196,0.125181,0.023248,-0.905151,0.424454,-0.043588,-0.202912,-0.114212,3.053198,-23.878128,20.354910,,,,,,,5
1508446955.689726,3.069083,1.112483,1.740097,0.938156,-1.048751,-0.002897,0.032053,-0.896800,0.441273,0.001776,-0.263051,-0.012471,3.576905,-23.344881,20.881371,,,,,,,5
1508446955.709739,3.051151,1.094778,1.739929,0.803015,-0.768667,-0.129440,0.041388,-0.888827,0.456371,-0.077597,-0.384870,-0.138576,4.004154,-22.956171,21.231823,,,,,,,5
1508446955.729750,3.035468,1.085230,1.746130,0.229036,-0.355370,-0.202009,0.049436,-0.884411,0.464083,-0.154814,-0.410419,-0.246569,4.190609,-22.791351,21.372940,,,,,,,5
1508446955.749754,3.024152,1.086830,1.754064,-0.264121,-0.172211,-0.151640,0.054519,-0.885156,0.462089,-0.178878,-0.432638,-0.704795,4.540640,-22.657129,21.444029,,,,,,,5
1508446955.769770,3.011833,1.095568,1.762334,-0.572856,-0.339812,-0.127696,0.059204,-0.889188,0.453695,-0.183273,-0.545550,-1.103521,4.649860,-22.757210,21.314260,,,,,,,5
1508446955.789785,2.993629,1.112752,1.770395,-1.088263,-0.675822,0.008342,0.065190,-0.896919,0.437363,-0.274907,-0.643318,-1.211106,4.801787,-22.932642,21.091377,,,,,,,5
1508446955.809800,2.972525,1.142461,1.778217,-1.726178,-0.610484,0.064881,0.069889,-0.909659,0.409435,-0.030079,-0.490625,-0.767818,5.202058,-23.664726,20.167517,,,,,,,5
1508446955.829810,2.939403,1.184122,1.808797,-2.445400,-0.008395,-0.419736,0.075729,-0.926168,0.369428,0.607315,-0.231134,-0.361326,5.403514,-24.433876,19.172821,,,,,,,5
1508446955.849821,2.871488,1.234485,1.881950,-2.807819,-0.111405,-0.767783,0.088057,-0.943978,0.318042,0.542437,-0.162375,-0.128376,5.587006,-25.120617,18.208496,,,,,,,5
1508446955.869835,2.759928,1.279049,1.984349,-2.433632,-1.163181,-0.730353,0.107131,-0.957743,0.266930,0.101289,-0.452078,0.126289,5.911305,-25.795876,17.130051,,,,,,,5
1508446955.909843,2.564995,1.358363,2.107268,-2.059731,-1.666750,1.139915,0.114944,-0.977521,0.176751,-0.342498,-0.765674,0.707267,7.004961,-26.833200,14.990641,,,,,,,5
1508446955.889839,2.636856,1.315756,2.073683,-2.056520,-2.147553,0.050344,0.121999,-0.967653,0.220825,-0.349553,-0.775541,0.663193,7.004961,-26.833200,14.990641,,,,,,,5
1508446955.929869,2.520724,1.413071,2.133440,-2.659033,-0.484474,1.324322,0.091375,-0.987587,0.127758,-0.403921,-0.514931,0.070728,6.923681,-28.246452,12.165934,,,,,,,5
1508446955.949882,2.321210,1.475367,2.336066,-3.425422,0.406940,0.938556,0.069692,-0.995450,0.064978,-0.320836,-0.384295,0.032800,6.439376,-28.867359,10.909601,,,,,,,5
1508446955.969871,1.478220,1.517047,-3.084158,-3.579843,1.138303,0.748310,0.053493,-0.998556,-0.004966,-0.081188,-0.339365,0.238472,5.965237,-29.476376,9.453497,,,,,,,5
1508446955.989895,0.510408,1.486371,-2.088710,-3.406107,1.289608,0.600794,0.041196,-0.996438,-0.073577,0.298694,-0.149985,0.479308,5.042695,-30.444214,6.444408,,,,,,,5
1508446956.009917,0.247091,1.431454,-1.802094,-2.918002,0.947781,0.440594,0.033971,-0.990308,-0.134674,0.310435,0.144543,0.422287,4.597153,-30.850830,4.571860,,,,,,,5
1508446956.029930,0.130064,1.382026,-1.667036,-2.454223,0.734061,0.759425,0.024338,-0.982236,-0.186066,0.203949,0.248944,0.432709,4.416948,-30.990149,3.729697,,,,,,,5
1508446956.049925,0.039414,1.338994,-1.564070,-2.155173,0.370176,0.945819,0.009052,-0.973254,-0.229553,-0.117558,0.506137,0.560776,3.644833,-31.274723,1.554429,,,,,,,5
1508446956.069954,-0.024283,1.297505,-1.490938,-2.033618,0.387806,0.841426,-0.006553,-0.962888,-0.269822,-0.170754,0.504895,0.601121,3.059338,-31.374901,0.255782,,,,,,,5
1508446956.089964,-0.060111,1.258249,-1.442632,-1.854718,0.605227,0.766406,-0.018472,-0.951553,-0.306928,-0.141715,0.461105,0.620115,2.801027,-31.397932,-0.365244,,,,,,,5
1508446956.109979,-0.075391,1.224517,-1.413168,-1.539208,0.768867,0.522113,-0.025564,-0.940642,-0.338437,-0.090007,0.409972,0.661801,2.169792,-31.385262,-2.016606,,,,,,,5
1508446956.129969,-0.076579,1.196383,-1.383881,-1.234257,1.529838,0.665752,-0.027979,-0.930722,-0.364655,-0.051687,0.397000,0.638855,1.857426,-31.338411,-2.874616,,,,,,,5
1508446956.150000,-0.069993,1.175299,-1.357751,-0.853727,1.529868,0.428261,-0.026944,-0.922805,-0.384324,-0.021243,0.297042,0.692963,1.694627,-31.313732,-3.223013,,,,,,,5
1508446956.170014,-0.053261,1.160070,-1.343937,-0.702300,1.421073,0.326148,-0.021256,-0.916831,-0.398709,0.035553,0.367179,0.596997,1.461594,-31.240772,-3.960715,,,,,,,5
1508446956.190025,-0.051417,1.149656,-1.322718,-0.305140,0.743753,0.514180,-0.021010,-0.912623,-0.408261,0.109313,0.426738,0.529233,1.439144,-31.229050,-4.060132,,,,,,,5
1508446956.210014,-0.070495,1.152337,-1.297311,0.455608,-0.081230,0.453822,-0.028622,-0.913716,-0.405343,0.139035,0.452702,0.504693,1.171832,-31.199900,-4.359174,,,,,,,5
1508446956.230050,-0.096798,1.166527,-1.281782,0.813281,-0.918603,0.131394,-0.038016,-0.919390,-0.391506,0.293463,0.295748,0.348415,0.879711,-31.239250,-4.140609,,,,,,,5
1508446956.250060,-0.125737,1.183062,-1.274628,0.879621,-1.082677,0.013602,-0.047415,-0.925768,-0.375107,0.286184,0.082232,-0.083602,0.652535,-31.332767,-3.411945,,,,,,,5
1508446956.270072,-0.147972,1.203155,-1.273321,1.027959,-1.189559,-0.149225,-0.052990,-0.933178,-0.355487,0.156505,-0.058338,-0.407940,0.652535,-31.332767,-3.411945,,,,,,,5
1508446956.290085,-0.183769,1.222416,-1.261968,0.865403,-1.094654,0.231749,-0.062382,-0.939927,-0.335628,-0.106441,-0.328201,-0.892476,0.642771,-31.418535,-2.504383,,,,,,,5
1508446956.310096,-0.237389,1.228034,-1.216606,0.201404,-0.260936,0.980737,-0.079037,-0.941830,-0.326664,-0.551685,-0.388721,-1.004848,0.257899,-31.470943,-1.822783,,,,,,,5
1508446956.330108,-0.297788,1.222780,-1.146218,0.043953,0.675991,1.246332,-0.100061,-0.940051,-0.326024,-0.540335,-0.239529,-0.676723,-0.268671,-31.474161,-1.764732,,,,,,,5
1508446956.350096,-0.330348,1.218304,-1.087168,0.165675,1.337478,0.862400,-0.111986,-0.938515,-0.326571,-0.169875,0.032982,-0.178068,-1.141289,-31.456486,-1.731016,,,,,,,5
