timestamp(unix),attitude_roll(radians),attitude_pitch(radians),attitude_yaw(radians),rotation_rate_x(radians/s),rotation_rate_y(radians/s),rotation_rate_z(radians/s),gravity_x(G),gravity_y(G),gravity_z(G),user_acc_x(G),user_acc_y(G),user_acc_z(G),magnetic_field_x(microteslas),magnetic_field_y(microteslas),magnetic_field_z(microteslas),latitude(degree),longitude(degree),altitude(meter),speed(m/s),course(degree),timestamp(unix),User Mark
1508446696.405880,0.127626,0.035503,0.059659,0.085358,-0.051095,-0.010854,0.127200,-0.035496,-0.991242,-0.004336,0.045185,-0.010986,-1.366811,-13.859091,-43.993526,,,,,,,5
1508446696.425890,0.125904,0.036697,0.059820,0.029958,-0.097694,0.021660,0.125487,-0.036689,-0.991417,0.015809,-0.012323,-0.024514,-1.411322,-13.910913,-43.975765,,,,,,,5
1508446696.445901,0.124683,0.036462,0.060103,-0.030737,-0.035038,0.006300,0.124277,-0.036453,-0.991578,0.018972,-0.028290,0.010270,-1.477592,-13.930227,-43.967472,,,,,,,5
,,,,,,,,,,,,,,,,42.293326,-71.264170,59.963139,-1.000000,-1.000000,1508446696.397815,5
,,,,,,,,,,,,,,,,42.293326,-71.264170,59.963139,-1.000000,-1.000000,1508446691.213906,5
1508446696.465914,0.124579,0.035764,0.060344,-0.029701,0.007470,0.010600,0.124178,-0.035757,-0.991616,0.001295,-0.000163,0.034615,-1.518468,-13.908059,-43.973095,,,,,,,5
,,,,,,,,,,,,,,,,42.293326,-71.264170,59.963139,-1.000000,-1.000000,1508446696.409972,5
,,,,,,,,,,,,,,,,42.293326,-71.264170,59.963139,-1.000000,-1.000000,1508446696.426991,5
1508446696.485924,0.124807,0.035896,0.060692,0.030970,0.011723,0.020687,0.124403,-0.035888,-0.991583,-0.018491,0.031280,0.026998,-1.515738,-13.881161,-43.981693,,,,,,,5
1508446696.505917,0.125048,0.037091,0.060920,0.059725,0.018061,0.014541,0.124637,-0.037083,-0.991509,-0.020206,0.013462,0.013467,-1.515738,-13.881161,-43.981693,,,,,,,5
1508446696.525920,0.125543,0.037649,0.060902,0.001195,0.025460,-0.005102,0.125125,-0.037640,-0.991427,0.001966,-0.018848,-0.013670,-1.493795,-13.962224,-43.956776,,,,,,,5
1508446696.545957,0.125940,0.036903,0.060791,-0.052023,0.014837,-0.013003,0.125521,-0.036894,-0.991405,0.012769,-0.013475,-0.013707,-1.471905,-13.942219,-43.963863,,,,,,,5
1508446696.565953,0.126416,0.035350,0.060632,-0.030721,-0.005356,-0.012843,0.126001,-0.035343,-0.991400,0.010627,0.016071,0.000754,-1.464968,-13.919529,-43.971283,,,,,,,5
1508446696.585978,0.126141,0.035411,0.060409,0.026777,-0.020246,-0.009185,0.125728,-0.035403,-0.991433,-0.003810,0.008304,0.007043,-1.447797,-13.862760,-43.989784,,,,,,,5
1508446696.605990,0.125615,0.036298,0.060175,0.038480,-0.013867,-0.005889,0.125203,-0.036290,-0.991467,-0.004109,-0.002345,0.003674,-1.463926,-13.895684,-43.978859,,,,,,,5
1508446696.625979,0.125598,0.036710,0.060061,0.005453,0.008477,-0.000821,0.125183,-0.036702,-0.991455,0.003128,-0.006343,0.003219,-1.475883,-13.922836,-43.969872,,,,,,,5
1508446696.646006,0.126151,0.036544,0.060054,-0.016909,0.019109,-0.002063,0.125733,-0.036536,-0.991391,0.003708,-0.001657,0.006665,-1.461358,-13.920925,-43.970963,,,,,,,5
1508446696.666022,0.126385,0.036314,0.060016,0.002268,-0.002150,-0.002985,0.125965,-0.036306,-0.991370,0.001354,0.002981,0.010321,-1.443189,-13.915583,-43.973251,,,,,,,5
1508446696.686033,0.126074,0.036498,0.059961,0.023567,-0.023396,0.000369,0.125656,-0.036490,-0.991403,-0.001099,0.001029,0.003793,-1.440604,-13.910262,-43.975021,,,,,,,5
1508446696.706047,0.125506,0.037058,0.059913,0.019308,-0.022331,0.000335,0.125091,-0.037049,-0.991453,-0.000229,-0.002425,0.001112,-1.470945,-13.935548,-43.966011,,,,,,,5
1508446696.726054,0.125177,0.037464,0.059850,0.017175,-0.008527,-0.001802,0.124763,-0.037455,-0.991479,-0.000770,-0.001500,-0.000739,-1.484203,-13.951526,-43.960495,,,,,,,5
1508446696.746067,0.125499,0.037912,0.059764,0.010781,0.004225,-0.001845,0.125079,-0.037903,-0.991422,0.005337,-0.002503,0.006086,-1.486895,-13.972482,-43.953747,,,,,,,5
1508446696.766079,0.125929,0.038242,0.059684,0.006519,0.015910,-0.002936,0.125504,-0.038233,-0.991356,0.000152,-0.001959,0.005867,-1.462029,-13.992202,-43.948311,,,,,,,5
1508446696.786079,0.126388,0.038401,0.059628,0.006515,0.016981,-0.000806,0.125959,-0.038391,-0.991292,0.000628,-0.000076,0.003896,-1.446015,-14.000765,-43.946114,,,,,,,5
1508446696.806100,0.126751,0.038488,0.059575,0.007586,0.011662,-0.002931,0.126319,-0.038479,-0.991243,0.002755,0.001675,0.004656,-1.433377,-14.005466,-43.945030,,,,,,,5
1508446696.826112,0.127103,0.038587,0.059484,0.013977,0.002102,-0.001820,0.126667,-0.038577,-0.991195,0.003796,0.001743,-0.006043,-1.408271,-14.012468,-43.943607,,,,,,,5
1508446696.846107,0.127059,0.038927,0.059436,0.017174,-0.010639,0.000326,0.126621,-0.038918,-0.991187,0.000149,-0.001732,-0.003762,-1.403243,-14.024454,-43.939945,,,,,,,5
1508446696.866133,0.126724,0.039317,0.059335,0.016123,-0.019156,-0.005013,0.126288,-0.039307,-0.991215,0.000574,-0.001632,0.001194,-1.408825,-14.032242,-43.937283,,,,,,,5
1508446696.886147,0.126678,0.039673,0.059146,0.009743,-0.024474,-0.008264,0.126240,-0.039663,-0.991207,0.009167,-0.000727,0.001644,-1.417040,-14.052475,-43.930550,,,,,,,5
1508446696.906156,0.126189,0.039793,0.058919,0.005491,-0.030852,-0.010433,0.125755,-0.039783,-0.991263,-0.002738,-0.000897,-0.004174,-1.428900,-14.067245,-43.925438,,,,,,,5
1508446696.926152,0.125414,0.039896,0.058751,0.003354,-0.026591,-0.007253,0.124986,-0.039886,-0.991356,-0.006837,-0.001267,-0.004875,-1.428900,-14.067245,-43.925438,,,,,,,5
1508446696.946177,0.124336,0.039891,0.058673,-0.001974,-0.021275,-0.006228,0.123917,-0.039880,-0.991491,-0.006058,0.002206,0.006185,-1.507346,-14.077943,-43.919388,,,,,,,5
1508446696.966190,0.123761,0.039752,0.058414,0.004439,-0.038309,-0.015771,0.123348,-0.039742,-0.991567,0.000676,0.004677,0.006124,-1.533794,-14.075037,-43.919403,,,,,,,5
1508446696.986195,0.123134,0.040036,0.058059,0.026796,-0.053172,-0.010274,0.122725,-0.040025,-0.991633,0.008470,-0.000426,-0.003926,-1.550423,-14.074075,-43.919128,,,,,,,5
1508446697.006205,0.122035,0.040695,0.058010,0.027831,-0.052050,0.006771,0.121632,-0.040684,-0.991741,-0.000584,-0.001492,-0.001545,-1.598828,-14.107096,-43.906796,,,,,,,5
1508446697.026223,0.121188,0.041039,0.058146,0.007590,-0.037160,0.008745,0.120790,-0.041028,-0.991830,-0.000947,-0.001270,-0.003928,-1.631067,-14.123645,-43.900291,,,,,,,5
1508446697.046233,0.120655,0.041140,0.058352,0.002406,-0.014773,0.009851,0.120261,-0.041128,-0.991890,-0.005118,-0.000223,0.005501,-1.659043,-14.129707,-43.897293,,,,,,,5
1508446697.066246,0.120348,0.041238,0.058511,0.002396,0.011777,0.007741,0.119955,-0.041226,-0.991923,-0.005194,-0.001224,0.001338,-1.689754,-14.133095,-43.895027,,,,,,,5
1508446697.086250,0.120483,0.041397,0.058623,0.002401,0.009645,0.005610,0.120089,-0.041385,-0.991900,-0.003130,-0.001263,0.001162,-1.689529,-14.137710,-43.893551,,,,,,,5
1508446697.106266,0.120947,0.041355,0.058644,-0.003976,0.005382,0.000231,0.120549,-0.041344,-0.991846,0.010371,-0.000313,0.008310,-1.686412,-14.140822,-43.892670,,,,,,,5
1508446697.126278,0.121387,0.041227,0.058644,-0.002906,-0.000994,-0.000830,0.120986,-0.041215,-0.991798,0.004304,0.003404,0.007667,-1.654657,-14.137397,-43.894978,,,,,,,5
1508446697.146278,0.121513,0.041077,0.058614,0.002479,0.009650,-0.002880,0.121112,-0.041066,-0.991789,-0.008532,0.006001,0.006239,-1.645222,-14.126664,-43.898788,,,,,,,5
1508446697.166299,0.121655,0.041114,0.058499,0.016319,0.021317,-0.005952,0.121253,-0.041102,-0.991770,-0.009177,0.006907,0.004069,-1.640038,-14.128510,-43.898388,,,,,,,5
1508446697.186312,0.122204,0.041528,0.058355,0.022699,0.034066,-0.004824,0.121795,-0.041517,-0.991687,0.005112,-0.000750,0.003085,-1.624049,-14.142513,-43.894474,,,,,,,5
1508446697.206297,0.123096,0.041743,0.058225,-0.000725,0.037262,-0.006080,0.122679,-0.041731,-0.991569,0.008013,-0.003297,-0.001641,-1.578404,-14.158924,-43.890850,,,,,,,5
1508446697.226333,0.124008,0.041545,0.058082,-0.010300,0.034069,-0.009356,0.123583,-0.041533,-0.991465,0.005689,-0.000291,0.002451,-1.561104,-14.157541,-43.891911,,,,,,,5
1508446697.246347,0.124609,0.041414,0.057806,0.006754,0.019166,-0.015615,0.124180,-0.041402,-0.991396,-0.000218,0.003575,0.005037,-1.516712,-14.149925,-43.895927,,,,,,,5
,,,,,,,,,,,,,,,,42.293430,-71.264108,60.251484,-1.000000,-1.000000,1508446697.236141,5
1508446697.266356,0.124906,0.041548,0.057378,0.022743,-0.002103,-0.019758,0.124474,-0.041536,-0.991353,0.002617,0.000826,0.006444,-1.484190,-14.151549,-43.896515,,,,,,,5
1508446697.286346,0.124932,0.042062,0.056965,0.026997,-0.008463,-0.015469,0.124497,-0.042050,-0.991329,0.006133,-0.000278,0.006343,-1.479759,-14.162061,-43.893272,,,,,,,5
1508446697.306376,0.125259,0.042457,0.056634,0.018551,-0.012638,-0.012309,0.124819,-0.042444,-0.991271,0.010008,0.000436,0.007980,-1.467433,-14.196726,-43.882484,,,,,,,5
1508446697.326389,0.125188,0.042749,0.056330,0.015359,-0.017948,-0.012339,0.124747,-0.042736,-0.991268,0.007699,-0.000034,0.006343,-1.460124,-14.208170,-43.879028,,,,,,,5
1508446697.346273,0.124942,0.043043,0.056012,0.019626,-0.023272,-0.015502,0.124502,-0.043029,-0.991286,0.002756,0.001709,0.011519,-1.460154,-14.219016,-43.875511,,,,,,,5
1508446697.366297,0.124579,0.043338,0.055513,0.028156,-0.017993,-0.023946,0.124141,-0.043324,-0.991318,0.000173,0.002537,-0.004974,-1.473418,-14.243156,-43.867237,,,,,,,5
1508446697.386315,0.124363,0.043703,0.055088,0.023873,-0.005209,-0.014389,0.123924,-0.043689,-0.991329,0.001931,0.001285,-0.010029,-1.479958,-14.261771,-43.860970,,,,,,,5
1508446697.406301,0.124293,0.043943,0.054862,0.010025,-0.014741,-0.008122,0.123853,-0.043929,-0.991328,0.007388,0.001784,-0.010030,-1.480145,-14.270111,-43.858253,,,,,,,5
1508446697.426340,0.124630,0.043879,0.054631,0.000460,-0.032810,-0.013539,0.124188,-0.043865,-0.991289,0.013751,0.002804,0.004899,-1.470395,-14.278605,-43.855816,,,,,,,5
1508446697.446334,0.123667,0.043601,0.053743,-0.016448,-0.094610,-0.069092,0.123235,-0.043587,-0.991420,0.004786,0.000755,0.007991,-1.478672,-14.276453,-43.856239,,,,,,,5
1508446697.466359,0.121472,0.042606,0.052009,-0.040895,-0.099988,-0.091657,0.121064,-0.042593,-0.991731,-0.005311,0.000387,0.005235,-1.510766,-14.264775,-43.858944,,,,,,,5
1508446697.486372,0.119107,0.041341,0.051121,0.011201,-0.006232,-0.022975,0.118724,-0.041329,-0.992067,-0.040309,0.029564,0.003068,-1.617656,-14.217402,-43.870514,,,,,,,5
1508446697.506364,0.119396,0.041875,0.051316,0.073876,0.084226,0.032977,0.119008,-0.041863,-0.992010,-0.025777,0.014839,0.000540,-1.643549,-14.206198,-43.873180,,,,,,,5
1508446697.526393,0.121330,0.043642,0.052179,0.085518,0.128930,0.059726,0.120917,-0.043629,-0.991703,-0.017325,0.004932,0.000050,-1.629045,-14.229881,-43.866047,,,,,,,5
1508446697.546405,0.124076,0.045374,0.052966,0.039788,0.101260,0.038033,0.123630,-0.045359,-0.991291,0.023403,-0.018255,-0.005657,-1.511431,-14.325722,-43.839054,,,,,,,5
1508446697.566416,0.125130,0.045293,0.053273,-0.032515,0.022565,0.003305,0.124676,-0.045278,-0.991164,0.043110,-0.020030,-0.003892,-1.431032,-14.354031,-43.832489,,,,,,,5
1508446697.586426,0.124717,0.044075,0.053235,-0.065461,-0.042277,-0.012988,0.124273,-0.044061,-0.991269,0.038920,-0.007376,0.000501,-1.425496,-14.336514,-43.838406,,,,,,,5
1508446697.606441,0.123279,0.042729,0.053080,-0.018604,-0.068855,-0.011556,0.122855,-0.042716,-0.991505,-0.016913,0.024237,0.023426,-1.486283,-14.241085,-43.867477,,,,,,,5
1508446697.626449,0.122130,0.043114,0.052983,0.037870,-0.048572,0.004932,0.121713,-0.043101,-0.991629,-0.016778,0.009196,0.009558,-1.539484,-14.246203,-43.863983,,,,,,,5
1508446697.646444,0.121429,0.043937,0.053070,0.038901,-0.000750,0.010301,0.121014,-0.043922,-0.991679,-0.011211,0.002968,0.000483,-1.539484,-14.246203,-43.863983,,,,,,,5
1508446697.666469,0.122023,0.044323,0.053243,0.008000,0.042825,0.011144,0.121600,-0.044309,-0.991590,0.007291,-0.006015,-0.009967,-1.569068,-14.303396,-43.844315,,,,,,,5
1508446697.686481,0.122902,0.044338,0.053449,-0.002637,0.030075,0.008917,0.122473,-0.044323,-0.991482,0.014368,-0.006870,-0.008656,-1.540015,-14.305596,-43.844627,,,,,,,5
1508446697.706472,0.123689,0.044463,0.053561,-0.007935,0.005620,0.001401,0.123252,-0.044448,-0.991379,0.019631,-0.005921,0.003770,-1.519729,-14.303638,-43.845974,,,,,,,5
1508446697.726497,0.123293,0.044160,0.053529,-0.019618,-0.033699,-0.004049,0.122861,-0.044145,-0.991442,0.015353,0.000597,0.002336,-1.500885,-14.300289,-43.847717,,,,,,,5
1508446697.746515,0.122960,0.043541,0.053513,-0.029210,-0.023062,-0.001990,0.122535,-0.043528,-0.991509,0.003183,0.002283,0.005700,-1.521091,-14.278339,-43.854176,,,,,,,5
1508446697.766500,0.122641,0.043023,0.053600,-0.018580,-0.011359,0.004495,0.122221,-0.043010,-0.991571,-0.002042,0.002864,0.005944,-1.525345,-14.263868,-43.858730,,,,,,,5
1508446697.786539,0.122114,0.042606,0.053848,0.007033,-0.033553,0.017502,0.121700,-0.042593,-0.991653,-0.001431,0.007818,0.003936,-1.551282,-14.234005,-43.867527,,,,,,,5
1508446697.806542,0.121092,0.042899,0.054216,0.027269,-0.059047,0.020844,0.120686,-0.042885,-0.991764,-0.002049,0.003487,0.002293,-1.583987,-14.232739,-43.866768,,,,,,,5
1508446697.826559,0.119892,0.043533,0.054456,0.032605,-0.049523,0.011313,0.119492,-0.043519,-0.991881,-0.002946,0.002687,0.005782,-1.625074,-14.243153,-43.861881,,,,,,,5
1508446697.846570,0.118623,0.044053,0.054453,0.014516,-0.016639,-0.004783,0.118230,-0.044039,-0.992009,-0.018300,-0.002302,0.000264,-1.698794,-14.279078,-43.847408,,,,,,,5
1508446697.866570,0.118369,0.044002,0.054316,-0.013184,0.036471,-0.010295,0.117978,-0.043987,-0.992041,-0.029127,0.000271,0.003333,-1.741973,-14.286550,-43.843277,,,,,,,5
1508446697.886592,0.118849,0.043537,0.054180,-0.019591,0.076836,-0.011382,0.118457,-0.043523,-0.992005,-0.031528,0.002126,-0.000503,-1.721707,-14.280009,-43.846210,,,,,,,5
1508446697.906605,0.119611,0.043207,0.054028,-0.000441,0.098077,-0.009078,0.119214,-0.043194,-0.991929,-0.013517,0.002117,0.002366,-1.681230,-14.253667,-43.856350,,,,,,,5
1508446697.926615,0.121664,0.043303,0.053885,0.009131,0.103399,-0.004736,0.121250,-0.043290,-0.991678,0.008739,0.001206,-0.000464,-1.605316,-14.254397,-43.858955,,,,,,,5
1508446697.946626,0.123962,0.043343,0.053766,-0.000444,0.087471,-0.004827,0.123529,-0.043329,-0.991395,0.014654,0.001444,-0.000839,-1.560121,-14.258462,-43.859268,,,,,,,5
1508446697.966619,0.127081,0.043175,0.053612,0.001756,0.061006,-0.003725,0.126621,-0.043161,-0.991012,0.019162,0.002359,0.002471,-1.433652,-14.257226,-43.863987,,,,,,,5
1508446697.986648,0.128729,0.043261,0.053549,0.012403,0.038717,0.002735,0.128254,-0.043247,-0.990798,0.012401,0.000965,0.005141,-1.291062,-14.254934,-43.869160,,,,,,,5
1508446698.006643,0.129706,0.043533,0.053627,0.010264,0.037676,0.008040,0.129220,-0.043520,-0.990660,0.009406,0.000520,0.003417,-1.260417,-14.259860,-43.868450,,,,,,,5
1508446698.026668,0.130901,0.043727,0.053737,0.003878,0.038740,0.006923,0.130402,-0.043713,-0.990497,0.008605,-0.002415,0.013294,-1.192938,-14.273064,-43.866043,,,,,,,5
1508446698.046682,0.131881,0.043861,0.053851,0.000687,0.029185,0.007955,0.131373,-0.043847,-0.990363,0.009161,-0.002448,0.015036,-1.140563,-14.280758,-43.864933,,,,,,,5
1508446698.066665,0.132549,0.043932,0.054077,-0.005701,0.010087,0.013211,0.132033,-0.043918,-0.990272,0.014375,-0.002087,0.007682,-1.130209,-14.281191,-43.865059,,,,,,,5
1508446698.086696,0.133503,0.043784,0.054406,-0.021673,-0.001572,0.017330,0.132980,-0.043770,-0.990152,0.021317,0.000847,-0.006674,-1.089628,-14.276972,-43.867458,,,,,,,5
1508446698.106714,0.134328,0.043205,0.054741,-0.023748,-0.021679,0.013086,0.133800,-0.043192,-0.990067,0.021276,0.002588,0.002609,-1.054479,-14.254256,-43.875702,,,,,,,5
1508446698.126698,0.133903,0.042805,0.054914,-0.008812,-0.052523,0.004667,0.133381,-0.042792,-0.990141,0.017452,0.004920,0.006345,-1.044413,-14.241732,-43.880013,,,,,,,5
1508446698.146724,0.133186,0.042720,0.054948,0.009294,-0.061032,0.003746,0.132672,-0.042707,-0.990240,0.000522,0.000929,0.003377,-1.075779,-14.222581,-43.885464,,,,,,,5
1508446698.166748,0.131949,0.042943,0.055019,0.009290,-0.055717,0.004814,0.131445,-0.042930,-0.990393,-0.002234,0.000068,0.003150,-1.115894,-14.228586,-43.882515,,,,,,,5
1508446698.186759,0.130874,0.043163,0.055040,0.002910,-0.052545,-0.000560,0.130379,-0.043150,-0.990525,-0.001167,-0.005007,0.001954,-1.156330,-14.234555,-43.879536,,,,,,,5
1508446698.206752,0.129662,0.043251,0.054927,-0.004527,-0.050450,-0.010202,0.129178,-0.043238,-0.990678,-0.006040,-0.000021,0.002382,-1.227664,-14.247860,-43.873276,,,,,,,5
1508446698.226768,0.128590,0.042967,0.054763,-0.008797,-0.032386,-0.009159,0.128118,-0.042954,-0.990828,-0.009313,0.002961,0.004424,-1.273335,-14.240509,-43.874363,,,,,,,5
1508446698.246792,0.127868,0.042741,0.054664,-0.003483,-0.026004,-0.005916,0.127403,-0.042728,-0.990930,-0.008858,0.003803,0.003580,-1.294254,-14.233953,-43.875877,,,,,,,5
1508446698.266805,0.127151,0.042627,0.054558,0.007181,-0.032314,-0.004714,0.126694,-0.042614,-0.991026,0.000626,0.002254,0.002669,-1.342726,-14.222947,-43.877991,,,,,,,5
1508446698.286815,0.126576,0.042707,0.054469,-0.000273,-0.030185,-0.004774,0.126123,-0.042694,-0.991095,0.006659,0.001327,0.000724,-1.366599,-14.226598,-43.876068,,,,,,,5
1508446698.306825,0.126203,0.042372,0.054372,-0.024762,-0.022743,-0.007100,0.125755,-0.042359,-0.991157,0.006890,0.000489,0.001411,-1.378857,-14.225615,-43.876003,,,,,,,5
1508446698.326837,0.126042,0.041782,0.054412,-0.021586,-0.024831,0.003572,0.125599,-0.041770,-0.991201,0.006893,0.002097,-0.000132,-1.395228,-14.193839,-43.885777,,,,,,,5
1508446698.346848,0.125653,0.041528,0.054648,-0.007760,-0.035419,0.015390,0.125214,-0.041516,-0.991261,0.012801,0.001004,-0.006450,-1.404622,-14.176042,-43.891228,,,,,,,5
1508446698.366858,0.125145,0.041359,0.055048,-0.014153,-0.041773,0.019591,0.124712,-0.041347,-0.991331,0.013685,-0.000294,-0.008181,-1.422505,-14.172399,-43.891830,,,,,,,5
1508446698.386846,0.123977,0.040995,0.055409,-0.020522,-0.050299,0.011014,0.123555,-0.040983,-0.991491,-0.009435,0.001234,0.001135,-1.447088,-14.161436,-43.894566,,,,,,,5
1508446698.406882,0.122274,0.040515,0.055584,-0.014118,-0.048213,0.001486,0.121869,-0.040504,-0.991719,-0.018369,0.003486,0.005315,-1.543041,-14.130232,-43.901352,,,,,,,5
1508446698.426870,0.120828,0.040303,0.055613,0.001850,-0.040791,0.000559,0.120436,-0.040293,-0.991903,-0.008788,0.001993,0.002996,-1.607626,-14.116604,-43.903419,,,,,,,5
1508446698.446880,0.119948,0.040392,0.055700,0.003980,-0.034349,0.005962,0.119563,-0.040381,-0.992005,-0.002390,0.000007,0.006119,-1.665092,-14.116627,-43.901272,,,,,,,5
1508446698.466915,0.119319,0.040422,0.055726,-0.000267,-0.028002,-0.002586,0.118939,-0.040411,-0.992079,-0.001568,0.000159,0.009916,-1.689682,-14.118459,-43.899742,,,,,,,5
1508446698.486925,0.118740,0.040485,0.055475,0.006139,-0.015306,-0.016366,0.118364,-0.040474,-0.992145,-0.009264,-0.001335,0.015430,-1.708005,-14.118817,-43.898914,,,,,,,5
1508446698.506922,0.117933,0.041592,0.055096,0.023171,-0.001507,-0.016214,0.117558,-0.041580,-0.992195,-0.012196,-0.020935,0.005836,-1.746872,-14.148642,-43.887779,,,,,,,5
1508446698.526947,0.118185,0.043200,0.054913,0.007166,0.019804,-0.000358,0.117800,-0.043187,-0.992098,0.004072,-0.029583,0.004335,-1.754999,-14.215610,-43.865814,,,,,,,5
1508446698.546957,0.119163,0.043466,0.055033,-0.021601,0.035781,0.006870,0.118769,-0.043452,-0.991971,0.014761,-0.023198,0.005200,-1.741943,-14.244802,-43.856861,,,,,,,5
1508446698.566970,0.121104,0.043234,0.055152,-0.023719,0.023033,0.004713,0.120696,-0.043220,-0.991748,0.017412,0.002037,0.008594,-1.644244,-14.251546,-43.858444,,,,,,,5
1508446698.586975,0.121837,0.042747,0.055223,-0.014127,0.013458,0.001590,0.121425,-0.042734,-0.991680,0.005849,0.004175,0.003140,-1.602158,-14.233021,-43.866016,,,,,,,5
1508446698.606992,0.122132,0.042413,0.055211,-0.005597,0.012447,-0.003612,0.121719,-0.042401,-0.991659,0.003251,0.007641,0.000524,-1.587808,-14.220465,-43.870609,,,,,,,5
1508446698.627004,0.122911,0.042167,0.054989,0.007194,0.031516,-0.017334,0.122493,-0.042154,-0.991574,0.010152,0.002085,0.000332,-1.556940,-14.199711,-43.878441,,,,,,,5
1508446698.646990,0.123793,0.042403,0.054353,0.018949,0.019751,-0.038540,0.123367,-0.042390,-0.991455,0.008546,-0.002059,-0.003830,-1.500097,-14.209747,-43.877171,,,,,,,5
1508446698.667013,0.123632,0.042570,0.053259,0.011554,-0.014322,-0.062052,0.123206,-0.042557,-0.991468,-0.006644,-0.000244,-0.007311,-1.487362,-14.218692,-43.874706,,,,,,,5
1508446698.687037,0.122799,0.042233,0.051946,-0.000163,0.026016,-0.071700,0.122381,-0.042220,-0.991585,-0.058279,0.023208,0.004524,-1.517715,-14.222871,-43.872311,,,,,,,5
1508446698.707048,0.124194,0.042057,0.050468,0.001945,0.083366,-0.075899,0.123766,-0.042044,-0.991420,-0.041536,0.053626,-0.000279,-1.472939,-14.224394,-43.873344,,,,,,,5
1508446698.727059,0.125189,0.040850,0.049001,0.029620,0.060009,-0.067170,0.124758,-0.040838,-0.991346,-0.025255,0.059927,-0.002733,-1.403093,-14.227773,-43.874535,,,,,,,5
1508446698.747048,0.125735,0.041742,0.047891,0.058344,0.010162,-0.039288,0.125295,-0.041729,-0.991242,0.016048,-0.006641,0.010773,-1.349971,-14.192808,-43.887527,,,,,,,5
1508446698.767081,0.126198,0.043235,0.047320,0.030615,0.005015,-0.011788,0.125746,-0.043221,-0.991121,0.012575,-0.039771,0.001893,-1.304771,-14.291645,-43.856808,,,,,,,5
1508446698.787069,0.126247,0.043176,0.047320,-0.022652,-0.001265,0.006933,0.125794,-0.043162,-0.991117,0.011413,-0.038884,-0.007876,-1.304771,-14.291645,-43.856808,,,,,,,5
1508446698.807094,0.125657,0.042545,0.047860,-0.035451,-0.046849,0.032347,0.125214,-0.042532,-0.991218,0.015137,-0.000009,0.000526,-1.303689,-14.288940,-43.857723,,,,,,,5
1508446698.827114,0.124212,0.042141,0.048973,-0.021650,-0.076489,0.064381,0.123783,-0.042129,-0.991415,0.009350,0.003371,0.007543,-1.386920,-14.244961,-43.869473,,,,,,,5
1508446698.847126,0.123033,0.041937,0.050631,-0.020651,-0.038152,0.091037,0.122615,-0.041924,-0.991568,0.009053,0.000695,-0.005746,-1.428946,-14.234736,-43.871441,,,,,,,5
1508446698.867136,0.122441,0.041844,0.052652,-0.011093,-0.027496,0.101771,0.122028,-0.041832,-0.991645,0.016110,-0.004051,-0.001580,-1.517329,-14.204877,-43.878155,,,,,,,5
1508446698.887147,0.121148,0.042233,0.054500,0.020900,-0.084922,0.089215,0.120744,-0.042221,-0.991785,0.014540,-0.018372,0.022868,-1.585620,-14.201963,-43.876682,,,,,,,5
1508446698.907158,0.118831,0.044150,0.056065,0.039039,-0.118960,0.079757,0.118436,-0.044136,-0.991980,-0.001386,-0.034523,0.022376,-1.669523,-14.218297,-43.868279,,,,,,,5
1508446698.927170,0.116193,0.046490,0.057414,0.009243,-0.082877,0.060414,0.115806,-0.046473,-0.992184,-0.011268,-0.026296,-0.002460,-1.832460,-14.337555,-43.822937,,,,,,,5
1508446698.947167,0.114598,0.046369,0.058359,-0.041836,-0.047885,0.034465,0.114224,-0.046353,-0.992373,-0.011228,0.004650,-0.008543,-1.907094,-14.364824,-43.810822,,,,,,,5
1508446698.967191,0.113671,0.045348,0.058944,-0.053523,-0.044744,0.019465,0.113310,-0.045332,-0.992525,-0.010816,0.014204,-0.002729,-1.963955,-14.347035,-43.814137,,,,,,,5
1508446698.987204,0.112960,0.044771,0.059443,-0.015208,-0.022446,0.021927,0.112607,-0.044756,-0.992631,-0.010633,0.058260,0.010774,-2.027835,-14.285149,-43.831444,,,,,,,5
1508446699.007214,0.112846,0.043577,0.059781,0.023113,0.023177,0.011630,0.112500,-0.043563,-0.992696,-0.003293,0.041869,-0.005915,-2.047340,-14.219037,-43.852032,,,,,,,5
1508446699.027225,0.113550,0.044045,0.059613,0.019960,0.035830,-0.016070,0.113196,-0.044031,-0.992597,-0.000403,0.029138,-0.013705,-2.035119,-14.233212,-43.848000,,,,,,,5
1508446699.047237,0.114287,0.043833,0.058999,-0.006622,0.029403,-0.035459,0.113929,-0.043819,-0.992522,0.004448,0.006358,-0.013383,-1.982514,-14.254073,-43.843632,,,,,,,5
1508446699.067235,0.115134,0.043267,0.058314,-0.031123,0.049662,-0.035610,0.114773,-0.043253,-0.992450,0.001881,0.003321,-0.007642,-1.936197,-14.230720,-43.853287,,,,,,,5
1508446699.087243,0.116511,0.042624,0.057956,-0.025852,0.074175,-0.012124,0.116142,-0.042611,-0.992318,0.002434,0.001916,-0.001945,-1.907384,-14.217461,-43.858852,,,,,,,5
1508446699.107265,0.118325,0.042530,0.058103,-0.025887,0.053025,0.014479,0.117943,-0.042517,-0.992110,0.025398,-0.016809,-0.004747,-1.840882,-14.193933,-43.869312,,,,,,,5
1508446699.127280,0.118852,0.041885,0.058690,-0.042932,0.011662,0.031343,0.118469,-0.041872,-0.992075,0.024964,-0.024198,0.000406,-1.762301,-14.171414,-43.879818,,,,,,,5
1508446699.147268,0.119348,0.041786,0.059376,-0.049294,-0.027645,0.029131,0.118961,-0.041774,-0.992020,0.025311,-0.025289,0.010513,-1.762301,-14.171414,-43.879818,,,,,,,5
1508446699.167304,0.118358,0.041059,0.059902,-0.031157,-0.059565,0.017545,0.117983,-0.041048,-0.992167,0.015867,-0.006682,0.022517,-1.782736,-14.124496,-43.894119,,,,,,,5
1508446699.187314,0.117291,0.040727,0.060089,-0.018345,-0.077681,0.002730,0.116925,-0.040715,-0.992306,0.004458,-0.000438,0.012798,-1.828392,-14.105804,-43.898251,,,,,,,5
1508446699.207325,0.115444,0.040331,0.060190,-0.018350,-0.071305,0.003800,0.115094,-0.040320,-0.992536,-0.006833,0.001456,-0.004382,-1.883799,-14.093933,-43.899723,,,,,,,5
1508446699.227321,0.113692,0.039889,0.060436,-0.025831,-0.041470,0.011248,0.113357,-0.039879,-0.992754,-0.009231,-0.002235,-0.030394,-1.980153,-14.067719,-43.903889,,,,,,,5
1508446699.247348,0.113068,0.039357,0.060895,-0.034380,-0.027607,0.025030,0.112740,-0.039347,-0.992845,-0.016380,-0.013052,-0.059187,-2.030859,-14.044505,-43.909004,,,,,,,5
1508446699.267358,0.112777,0.038332,0.061705,-0.073812,-0.002042,0.038565,0.112455,-0.038323,-0.992917,-0.016630,-0.021354,-0.069399,-2.045627,-14.027911,-43.913624,,,,,,,5
1508446699.287369,0.112131,0.036936,0.062868,-0.127060,-0.010479,0.048767,0.111820,-0.036928,-0.993042,0.004361,-0.024534,-0.095871,-2.094421,-13.946260,-43.937325,,,,,,,5
1508446699.307366,0.110463,0.034384,0.064451,-0.132368,-0.134676,0.075248,0.110174,-0.034377,-0.993318,0.036402,-0.011384,-0.105498,-2.128310,-13.856762,-43.964005,,,,,,,5
1508446699.327391,0.105506,0.032181,0.066522,-0.121671,-0.302463,0.094375,0.105256,-0.032175,-0.993924,0.052855,-0.010610,-0.112612,-2.234020,-13.767177,-43.986897,,,,,,,5
1508446699.347404,0.099773,0.029108,0.068407,-0.208923,-0.318444,0.067024,0.099565,-0.029104,-0.994605,0.041655,-0.008845,-0.079690,-2.660919,-13.579246,-44.021549,,,,,,,5
1508446699.367393,0.093728,0.024228,0.070339,-0.269655,-0.286491,0.081453,0.093563,-0.024226,-0.995319,0.008152,-0.017538,-0.035687,-2.844549,-13.431118,-44.055492,,,,,,,5
1508446699.387425,0.088700,0.018682,0.072753,-0.303788,-0.223736,0.098255,0.088568,-0.018681,-0.995895,0.011469,-0.022716,0.009567,-3.049778,-13.250299,-44.096504,,,,,,,5
1508446699.407437,0.085354,0.012424,0.075015,-0.374041,-0.171666,0.072206,0.085244,-0.012424,-0.996283,-0.002465,-0.006894,0.042822,-3.353722,-12.847002,-44.193668,,,,,,,5
1508446699.427448,0.082062,0.004748,0.076924,-0.387868,-0.158952,0.060390,0.081969,-0.004748,-0.996624,-0.052046,0.029880,0.066692,-3.478194,-12.588247,-44.258465,,,,,,,5
1508446699.447438,0.078179,-0.003711,0.078548,-0.345293,-0.084671,0.044826,0.078099,0.003711,-0.996939,-0.059819,0.044049,0.074118,-3.593652,-12.328453,-44.322319,,,,,,,5
1508446699.467463,0.077650,-0.009875,0.079667,-0.289932,0.002335,0.022989,0.077568,0.009875,-0.996938,-0.033134,0.050092,0.089117,-3.771393,-11.815558,-44.447075,,,,,,,5
1508446699.487480,0.077821,-0.016537,0.080304,-0.242011,0.030937,0.007435,0.077732,0.016536,-0.996837,-0.003407,0.029286,0.050975,-3.772794,-11.506505,-44.527966,,,,,,,5
1508446699.507467,0.077918,-0.020676,0.080798,-0.191953,-0.016875,0.013136,0.077822,0.020675,-0.996753,0.011472,0.011475,0.017642,-3.772794,-11.506505,-44.527966,,,,,,,5
1508446699.527503,0.078175,-0.023500,0.081585,-0.193011,-0.069941,0.025864,0.078074,0.023497,-0.996671,0.052983,-0.032546,-0.025943,-3.772667,-11.224922,-44.599789,,,,,,,5
1508446699.547513,0.076729,-0.028121,0.082264,-0.255807,-0.072078,0.012567,0.076624,0.028117,-0.996664,0.053030,-0.034206,-0.027140,-3.812051,-10.983877,-44.656422,,,,,,,5
1508446699.567525,0.076289,-0.032599,0.083168,-0.271788,-0.101754,0.028384,0.076175,0.032593,-0.996562,0.026441,-0.013901,-0.026967,-3.810432,-10.843840,-44.690769,,,,,,,5
1508446699.587520,0.073503,-0.038135,0.084190,-0.283477,-0.161224,0.032501,0.073384,0.038126,-0.996575,0.005092,-0.000910,-0.014625,-3.950656,-10.533034,-44.752884,,,,,,,5
1508446699.607549,0.069725,-0.043917,0.085370,-0.283485,-0.191988,0.045255,0.069601,0.043902,-0.996608,-0.005865,0.004880,-0.017521,-4.122393,-10.268238,-44.798908,,,,,,,5
1508446699.627558,0.065768,-0.049326,0.086755,-0.271785,-0.201521,0.054927,0.065640,0.049306,-0.996624,-0.007825,-0.005514,-0.019504,-4.262253,-10.077502,-44.829124,,,,,,,5
1508446699.647570,0.062248,-0.054700,0.088159,-0.301616,-0.139913,0.048339,0.062115,0.054672,-0.996570,-0.004024,-0.012009,0.004948,-4.496033,-9.772797,-44.873726,,,,,,,5
1508446699.667557,0.060858,-0.061338,0.089384,-0.350613,-0.039030,0.029910,0.060706,0.061299,-0.996272,-0.032462,0.003795,0.029948,-4.578091,-9.556561,-44.911983,,,,,,,5
1508446699.687591,0.060845,-0.068184,0.090099,-0.331443,0.018260,0.010946,0.060666,0.068131,-0.995830,-0.046567,0.011642,0.043392,-4.609319,-9.319541,-44.958572,,,,,,,5
1508446699.707603,0.060313,-0.075098,0.090483,-0.279281,0.057508,0.003953,0.060107,0.075028,-0.995368,-0.048266,0.042709,0.062080,-4.646234,-8.840011,-45.051525,,,,,,,5
1508446699.727614,0.061670,-0.079850,0.090887,-0.215414,0.075551,0.008753,0.061435,0.079766,-0.994919,-0.017810,0.039009,0.058258,-4.606353,-8.662171,-45.090149,,,,,,,5
1508446699.747625,0.063358,-0.083469,0.091414,-0.161135,0.082998,0.019854,0.063095,0.083372,-0.994519,-0.001083,0.034868,0.050961,-4.557148,-8.515474,-45.123077,,,,,,,5
1508446699.767637,0.065047,-0.086065,0.092243,-0.120707,0.072429,0.041475,0.064760,0.085959,-0.994192,0.009596,-0.000769,0.035909,-4.449955,-8.301497,-45.173626,,,,,,,5
1508446699.787647,0.066015,-0.088152,0.093431,-0.103674,0.025730,0.056487,0.065711,0.088038,-0.993947,0.020516,-0.012980,0.031972,-4.408297,-8.195777,-45.197006,,,,,,,5
1508446699.807639,0.066725,-0.089712,0.094676,-0.090854,-0.025298,0.046971,0.066407,0.089592,-0.993762,0.007995,-0.005028,0.023120,-4.374166,-8.135967,-45.211128,,,,,,,5
1508446699.827663,0.066242,-0.091341,0.095646,-0.083391,-0.025320,0.041709,0.065918,0.091214,-0.993647,-0.003784,0.004702,0.011119,-4.412226,-8.031595,-45.226086,,,,,,,5
1508446699.847680,0.065775,-0.093072,0.096628,-0.077033,0.003388,0.050301,0.065443,0.092938,-0.993519,-0.014708,0.002842,0.006550,-4.450486,-7.945518,-45.237541,,,,,,,5
1508446699.867666,0.066390,-0.094464,0.097815,-0.072798,0.039517,0.053558,0.066045,0.094324,-0.993348,-0.018377,-0.001596,0.009828,-4.448967,-7.891109,-45.247211,,,,,,,5
1508446699.887691,0.066645,-0.095732,0.098870,-0.067477,0.054376,0.051484,0.066291,0.095586,-0.993211,-0.024833,-0.004049,0.001726,-4.429215,-7.838324,-45.258320,,,,,,,5
1508446699.907714,0.067838,-0.096876,0.100013,-0.058963,0.054380,0.053683,0.067468,0.096724,-0.993022,-0.020410,-0.004439,-0.006185,-4.407453,-7.745796,-45.276371,,,,,,,5
1508446699.927713,0.068210,-0.097819,0.100966,-0.070676,0.088346,0.045095,0.067831,0.097663,-0.992905,-0.015356,-0.003806,-0.003005,-4.401231,-7.708755,-45.283302,,,,,,,5
1508446699.947737,0.069842,-0.099169,0.101854,-0.081331,0.119142,0.040771,0.069443,0.099006,-0.992661,-0.008514,-0.002311,0.000397,-4.340432,-7.630868,-45.302361,,,,,,,5
1508446699.967736,0.072054,-0.100207,0.102844,-0.073889,0.119163,0.048286,0.071630,0.100039,-0.992402,-0.004156,-0.008334,0.001420,-4.258460,-7.566502,-45.320927,,,,,,,5
1508446699.987756,0.074599,-0.101426,0.103991,-0.067492,0.094735,0.050450,0.074147,0.101253,-0.992094,0.007182,-0.000117,0.010481,-4.189293,-7.532473,-45.333046,,,,,,,5
1508446700.007771,0.077180,-0.103496,0.104937,-0.063206,0.097859,0.032386,0.076691,0.103311,-0.991688,0.005829,0.013556,0.015156,-4.061138,-7.434065,-45.360943,,,,,,,5
1508446700.027764,0.079375,-0.105067,0.105567,-0.040836,0.096861,0.025179,0.078854,0.104873,-0.991354,0.005832,0.015854,0.012564,-3.957562,-7.331805,-45.386730,,,,,,,5
1508446700.047791,0.081476,-0.105886,0.106208,-0.025935,0.086250,0.030617,0.080930,0.105688,-0.991101,0.005633,0.009119,0.004299,-3.915706,-7.313941,-45.393246,,,,,,,5
1508446700.067803,0.084075,-0.105958,0.107018,-0.033395,0.093705,0.033756,0.083505,0.105760,-0.990879,0.014136,-0.015199,-0.000545,-3.779067,-7.259336,-45.413589,,,,,,,5
1508446700.087814,0.086560,-0.106235,0.107714,-0.045097,0.103247,0.026213,0.085965,0.106036,-0.990639,0.012668,-0.016116,-0.001624,-3.657827,-7.264155,-45.422741,,,,,,,5
1508446700.107825,0.088947,-0.106839,0.108307,-0.054670,0.100051,0.021873,0.088323,0.106636,-0.990368,0.008830,-0.013084,-0.002705,-3.613012,-7.242485,-45.429790,,,,,,,5
1508446700.127838,0.091323,-0.108303,0.108822,-0.049333,0.088347,0.016584,0.090662,0.108092,-0.989998,0.008398,0.011019,0.006905,-3.462806,-7.179430,-45.451492,,,,,,,5
1508446700.147847,0.093280,-0.109522,0.109199,-0.041874,0.085146,0.013449,0.092587,0.109303,-0.989687,0.005573,0.012202,0.000765,-3.364481,-7.104269,-45.470684,,,,,,,5
1508446700.167837,0.095219,-0.110370,0.109625,-0.036562,0.086229,0.019882,0.094497,0.110146,-0.989413,0.005998,0.004981,-0.000959,-3.327428,-7.085497,-45.476334,,,,,,,5
1508446700.187862,0.097946,-0.111018,0.110153,-0.046136,0.088344,0.014481,0.097187,0.110790,-0.989081,0.013302,0.000279,-0.002268,-3.231356,-7.049816,-45.488808,,,,,,,5
1508446700.207880,0.100044,-0.112237,0.110372,-0.052493,0.082977,-0.002611,0.099249,0.112001,-0.988739,0.004358,0.004607,0.000916,-3.074856,-6.981489,-45.510189,,,,,,,5
1508446700.227865,0.101817,-0.113419,0.110358,-0.050354,0.081896,-0.007918,0.100988,0.113176,-0.988429,0.003382,0.004591,0.003932,-3.074856,-6.981489,-45.510189,,,,,,,5
1508446700.247903,0.103679,-0.114961,0.110359,-0.051421,0.071286,-0.004741,0.102811,0.114708,-0.988065,0.005008,0.005607,-0.004352,-2.943464,-6.890451,-45.532745,,,,,,,5
1508446700.267914,0.105232,-0.116049,0.110484,-0.061016,0.074501,0.001571,0.104332,0.115789,-0.987779,0.001412,-0.003392,-0.003737,-2.830867,-6.801296,-45.553284,,,,,,,5
1508446700.287924,0.107203,-0.117271,0.110788,-0.071674,0.079834,0.005746,0.106263,0.117002,-0.987430,0.009124,-0.002393,0.004322,-2.772422,-6.765123,-45.562263,,,,,,,5
1508446700.307935,0.109426,-0.118942,0.111079,-0.079110,0.072379,-0.001774,0.108436,0.118662,-0.986996,0.012414,0.002600,0.011090,-2.657803,-6.679254,-45.581760,,,,,,,5
1508446700.327949,0.110892,-0.120607,0.111198,-0.072698,0.037305,-0.006006,0.109861,0.120315,-0.986638,0.005328,0.000367,0.007680,-2.585913,-6.616286,-45.595078,,,,,,,5
1508446700.347957,0.111207,-0.121847,0.111371,-0.055666,-0.001961,0.007946,0.110155,0.121546,-0.986454,0.001524,-0.000437,0.001744,-2.553103,-6.564827,-45.604362,,,,,,,5
1508446700.367970,0.111188,-0.122866,0.111785,-0.039697,-0.023191,0.014450,0.110123,0.122557,-0.986333,0.008148,0.004885,0.016057,-2.556307,-6.491244,-45.614716,,,,,,,5
1508446700.387976,0.111052,-0.123632,0.112162,-0.018400,-0.021084,0.012498,0.109978,0.123318,-0.986254,0.002709,0.005818,0.028048,-2.556668,-6.441439,-45.621750,,,,,,,5
1508446700.407991,0.110681,-0.123823,0.112439,0.003955,-0.021087,0.014812,0.109609,0.123507,-0.986272,-0.002386,0.003263,0.024434,-2.566856,-6.434420,-45.622173,,,,,,,5
1508446700.428003,0.110307,-0.123391,0.112720,-0.003496,-0.014717,0.012626,0.109247,0.123078,-0.986365,-0.000512,-0.009080,0.013770,-2.599819,-6.436788,-45.619972,,,,,,,5
1508446700.448014,0.110232,-0.123608,0.112935,-0.017330,-0.008358,0.006128,0.109169,0.123293,-0.986347,0.001686,-0.002886,0.014149,-2.606465,-6.436392,-45.619652,,,,,,,5
1508446700.468023,0.110090,-0.123950,0.113099,-0.008806,-0.020047,0.006190,0.109025,0.123633,-0.986321,0.004531,0.002221,0.011681,-2.611402,-6.428565,-45.620472,,,,,,,5
1508446700.488023,0.109604,-0.124189,0.113209,0.011425,-0.028551,0.007415,0.108542,0.123870,-0.986344,-0.002341,0.006852,0.001954,-2.631013,-6.409129,-45.622078,,,,,,,5
1508446700.508047,0.109089,-0.123702,0.113316,0.022073,-0.022190,0.005378,0.108041,0.123386,-0.986460,0.000175,-0.003544,-0.007711,-2.659960,-6.420283,-45.618828,,,,,,,5
1508446700.528033,0.108798,-0.122742,0.113275,0.018893,-0.016906,-0.003162,0.107766,0.122434,-0.986609,0.002433,-0.010938,-0.014917,-2.671760,-6.446594,-45.614429,,,,,,,5
1508446700.548061,0.108479,-0.122301,0.113073,0.006139,-0.020127,-0.014981,0.107458,0.121996,-0.986696,0.001566,-0.000765,0.005373,-2.689098,-6.488461,-45.607471,,,,,,,5
1508446700.568080,0.107762,-0.122355,0.112727,0.012537,-0.039252,-0.014943,0.106750,0.122050,-0.986767,-0.003326,0.006277,0.010677,-2.711112,-6.487308,-45.606335,,,,,,,5
1508446700.588063,0.106633,-0.122047,0.112462,0.034890,-0.058355,-0.006255,0.105640,0.121744,-0.986924,0.000851,0.006262,0.013108,-2.729817,-6.495347,-45.604076,,,,,,,5
1508446700.608088,0.105808,-0.121169,0.112342,0.037001,-0.040277,-0.000900,0.104836,0.120872,-0.987117,0.001060,-0.007927,0.002040,-2.796769,-6.529972,-45.595074,,,,,,,5
1508446700.628113,0.105338,-0.120093,0.112331,0.021010,-0.010508,0.003250,0.104386,0.119804,-0.987295,-0.001557,-0.009941,-0.001567,-2.822486,-6.579883,-45.586311,,,,,,,5
1508446700.648125,0.105178,-0.119812,0.112425,0.003965,-0.003052,0.006309,0.104232,0.119526,-0.987345,-0.003325,-0.000034,0.007883,-2.831450,-6.605429,-45.582062,,,,,,,5
1508446700.668112,0.104757,-0.120388,0.112436,0.005052,-0.022205,-0.002215,0.103809,0.120098,-0.987320,-0.005084,0.016514,0.011749,-2.845829,-6.598052,-45.582233,,,,,,,5
1508446700.688147,0.103479,-0.120869,0.112292,0.033807,-0.051959,0.000129,0.102540,0.120574,-0.987394,-0.008882,0.021332,0.000013,-2.890270,-6.573690,-45.582958,,,,,,,5
1508446700.708158,0.102283,-0.120449,0.112291,0.057207,-0.041314,0.009912,0.101365,0.120158,-0.987566,-0.004060,0.013112,-0.003629,-2.939929,-6.565927,-45.580902,,,,,,,5
1508446700.728170,0.101612,-0.119699,0.112343,0.048669,-0.003067,0.009871,0.100712,0.119414,-0.987723,-0.009831,0.006364,-0.003488,-2.986550,-6.607302,-45.571892,,,,,,,5
1508446700.748173,0.101464,-0.118841,0.112337,0.035896,0.016034,0.002326,0.100576,0.118561,-0.987840,-0.008779,-0.002503,0.007920,-3.003185,-6.632959,-45.567070,,,,,,,5
1508446700.768190,0.101746,-0.118141,0.112123,0.030590,0.025553,-0.010487,0.100863,0.117866,-0.987894,-0.008425,-0.004081,0.006342,-2.999740,-6.659058,-45.563488,,,,,,,5
1508446700.788203,0.101767,-0.117092,0.111876,0.026320,0.024517,-0.003070,0.100896,0.116824,-0.988014,-0.007970,-0.011493,-0.003792,-2.983980,-6.716105,-45.556152,,,,,,,5
1508446700.808190,0.102001,-0.116315,0.111914,0.030557,0.018193,0.011867,0.101136,0.116053,-0.988081,-0.011140,-0.010782,0.002561,-2.980381,-6.761702,-45.549644,,,,,,,5
1508446700.828207,0.102021,-0.115258,0.112187,0.053971,0.006528,0.021634,0.101168,0.115003,-0.988200,-0.009936,-0.005140,0.003260,-2.973523,-6.776421,-45.547905,,,,,,,5
1508446700.848237,0.101994,-0.113910,0.112425,0.065686,0.019251,0.016416,0.101158,0.113664,-0.988356,-0.005943,-0.000719,0.004835,-2.983254,-6.857571,-45.535118,,,,,,,5
1508446700.868247,0.102606,-0.112562,0.112372,0.051865,0.046811,-0.002842,0.101778,0.112325,-0.988445,-0.004305,-0.004933,-0.007328,-2.967949,-6.922027,-45.526363,,,,,,,5
1508446700.888257,0.103674,-0.111859,0.112147,0.019925,0.061681,-0.008419,0.102842,0.111625,-0.988415,-0.004026,-0.003486,-0.008167,-2.945110,-6.943600,-45.524563,,,,,,,5
1508446700.908255,0.104689,-0.111130,0.112025,0.022053,0.041522,-0.000963,0.103853,0.110901,-0.988390,0.004545,-0.007416,-0.020170,-2.871174,-6.986161,-45.522774,,,,,,,5
1508446700.928258,0.105419,-0.110286,0.112139,0.023104,0.023512,0.012874,0.104585,0.110063,-0.988407,0.010146,-0.012864,-0.024044,-2.832896,-7.032918,-45.517971,,,,,,,5
1508446700.948292,0.106236,-0.109390,0.112617,-0.000350,0.028896,0.029721,0.105402,0.109172,-0.988419,0.004888,-0.011303,-0.022476,-2.810184,-7.060770,-45.515068,,,,,,,5
1508446700.968288,0.107439,-0.109711,0.113341,-0.013131,0.032095,0.030683,0.106588,0.109491,-0.988256,0.011729,0.007972,-0.001947,-2.768765,-7.066080,-45.516785,,,,,,,5
1508446700.988314,0.108822,-0.110663,0.113858,-0.008843,0.023542,0.014740,0.107943,0.110437,-0.988004,0.015897,0.018225,0.015470,-2.716108,-7.030412,-45.525478,,,,,,,5
1508446701.008324,0.109793,-0.111560,0.114081,0.002896,0.004376,0.003110,0.108891,0.111328,-0.987800,0.012401,0.015518,0.017982,-2.668320,-6.983548,-45.535515,,,,,,,5
1508446701.028337,0.110020,-0.111830,0.114072,0.014625,-0.012543,-0.003134,0.109112,0.111597,-0.987745,0.005435,0.006537,0.017347,-2.644918,-6.958876,-45.540661,,,,,,,5
1508446701.048347,0.109984,-0.111637,0.114103,0.011418,-0.016759,0.005355,0.109080,0.111405,-0.987770,0.004782,-0.001084,0.014809,-2.644687,-6.960406,-45.540440,,,,,,,5
1508446701.068358,0.110058,-0.111697,0.114328,0.010347,-0.029482,0.011725,0.109152,0.111465,-0.987756,0.013849,0.007234,0.014291,-2.642711,-6.962375,-45.540253,,,,,,,5
1508446701.088369,0.109956,-0.111793,0.114535,0.016748,-0.041183,0.007510,0.109050,0.111560,-0.987756,0.009954,0.006329,0.017786,-2.650428,-6.956279,-45.540737,,,,,,,5
1508446701.108360,0.109291,-0.111467,0.114579,0.030597,-0.036962,0.001239,0.108396,0.111236,-0.987865,-0.000501,0.002000,0.010722,-2.662602,-6.956237,-45.540031,,,,,,,5
1508446701.128391,0.108484,-0.110778,0.114406,0.038063,-0.035930,-0.006152,0.107608,0.110552,-0.988028,-0.004337,-0.000276,0.007147,-2.687887,-6.973687,-45.535877,,,,,,,5
1508446701.148403,0.107515,-0.109742,0.114151,0.047657,-0.043386,-0.010337,0.106663,0.109522,-0.988245,-0.002079,-0.005502,0.002375,-2.745526,-7.031079,-45.523609,,,,,,,5
1508446701.168389,0.106605,-0.108459,0.113742,0.050867,-0.045538,-0.017765,0.105778,0.108246,-0.988481,0.001751,-0.013596,0.002976,-2.784842,-7.096215,-45.511112,,,,,,,5
1508446701.188423,0.105583,-0.107164,0.113147,0.041322,-0.064706,-0.032765,0.104783,0.106959,-0.988727,0.008102,-0.018290,0.003741,-2.804720,-7.119901,-45.506195,,,,,,,5
1508446701.208436,0.104255,-0.105535,0.112138,0.021182,-0.140215,-0.060670,0.103487,0.105340,-0.989037,0.022154,-0.024712,0.005913,-2.875764,-7.222287,-45.485622,,,,,,,5
1508446701.228446,0.100264,-0.105404,0.110700,0.016985,-0.222053,-0.072479,0.099541,0.105209,-0.989456,0.002418,0.001282,0.008911,-3.000987,-7.263371,-45.470985,,,,,,,5
1508446701.248456,0.095305,-0.105295,0.109384,0.064845,-0.210303,-0.046522,0.094633,0.105100,-0.989949,-0.011931,0.028353,0.018574,-3.098971,-7.275210,-45.462524,,,,,,,5
1508446701.268448,0.092513,-0.103136,0.108836,0.134972,-0.084818,0.001001,0.091890,0.102953,-0.990433,-0.070711,0.060026,0.041702,-3.361070,-7.353621,-45.431274,,,,,,,5
1508446701.288480,0.092646,-0.099720,0.109056,0.184876,0.057644,0.039851,0.092054,0.099555,-0.990765,-0.075071,0.013543,0.034145,-3.390917,-7.494667,-45.406002,,,,,,,5
1508446701.308492,0.095106,-0.096089,0.109593,0.163532,0.152207,0.040811,0.094525,0.095942,-0.990889,-0.040127,-0.040567,0.027388,-3.338233,-7.619127,-45.389187,,,,,,,5
1508446701.328487,0.098649,-0.093574,0.110020,0.104966,0.181963,0.035027,0.098058,0.093438,-0.990785,-0.030126,-0.026589,0.017838,-3.162861,-7.781221,-45.374245,,,,,,,5
1508446701.348513,0.102323,-0.091296,0.110943,0.120871,0.176782,0.074550,0.101719,0.091169,-0.990627,-0.044591,0.001604,-0.000645,-3.006248,-7.873342,-45.368999,,,,,,,5
1508446701.368514,0.105948,-0.087866,0.112563,0.178314,0.172612,0.105898,0.105342,0.087753,-0.990557,0.021764,0.007156,-0.033476,-2.897034,-7.964625,-45.360172,,,,,,,5
1508446701.388537,0.109556,-0.084611,0.113996,0.131522,0.168278,0.074631,0.108946,0.084510,-0.990449,0.032289,-0.004111,-0.020522,-2.718320,-8.147207,-45.338799,,,,,,,5
1508446701.408545,0.111758,-0.082333,0.115002,0.100725,0.056701,0.060451,0.111147,0.082240,-0.990395,0.006788,-0.015345,-0.030387,-2.607840,-8.248297,-45.327011,,,,,,,5
1508446701.428558,0.111693,-0.080127,0.116200,0.105001,-0.032482,0.076390,0.111104,0.080042,-0.990580,0.011150,-0.017175,-0.048421,-2.598104,-8.314735,-45.315430,,,,,,,5
1508446701.448570,0.111395,-0.078199,0.117615,0.075163,-0.006944,0.083616,0.110825,0.078119,-0.990765,0.004913,-0.002634,-0.058109,-2.643769,-8.419416,-45.293457,,,,,,,5
1508446701.468560,0.111731,-0.076890,0.119148,0.047475,0.017489,0.079147,0.111169,0.076814,-0.990828,0.005484,0.012359,-0.047425,-2.653383,-8.461596,-45.285030,,,,,,,5
1508446701.488590,0.112668,-0.076272,0.120378,0.007034,0.060983,0.055422,0.112103,0.076198,-0.990771,0.000263,0.012516,-0.035673,-2.650648,-8.490206,-45.279835,,,,,,,5
1508446701.508603,0.113575,-0.076456,0.121399,-0.015351,0.096063,0.059522,0.113000,0.076381,-0.990655,-0.038003,0.000996,-0.027991,-2.615970,-8.488497,-45.282173,,,,,,,5
1508446701.528588,0.115873,-0.076633,0.122832,-0.017513,0.116293,0.072297,0.115275,0.076558,-0.990379,-0.018580,0.003291,-0.023491,-2.554793,-8.474831,-45.288223,,,,,,,5
1508446701.548624,0.118254,-0.076923,0.124234,-0.024947,0.105648,0.064774,0.117630,0.076847,-0.990080,-0.002029,0.004864,-0.019472,-2.485663,-8.459711,-45.294899,,,,,,,5
1508446701.568637,0.120839,-0.077079,0.125594,-0.028093,0.036577,0.057243,0.120187,0.077003,-0.989760,0.020682,-0.004340,-0.021821,-2.349021,-8.422441,-45.309135,,,,,,,5
1508446701.588647,0.120469,-0.077398,0.126747,-0.018458,-0.053741,0.052995,0.119818,0.077321,-0.989780,0.043481,-0.009862,-0.014858,-2.332442,-8.405646,-45.313110,,,,,,,5
1508446701.608657,0.118733,-0.077729,0.127620,-0.030107,-0.111168,0.033691,0.118096,0.077650,-0.989961,0.056098,-0.008559,-0.000609,-2.364497,-8.396317,-45.313175,,,,,,,5
1508446701.628652,0.118291,-0.078666,0.128417,-0.057738,-0.166338,0.020695,0.117650,0.078585,-0.989941,0.063640,-0.002474,0.047390,-2.535542,-8.347494,-45.312950,,,,,,,5
1508446701.648681,0.115353,-0.079668,0.128734,-0.043885,-0.122856,0.001677,0.114733,0.079584,-0.990203,0.030302,0.014898,0.054245,-2.571995,-8.293870,-45.320744,,,,,,,5
1508446701.668691,0.114027,-0.080113,0.128544,-0.004502,-0.035827,-0.016033,0.113415,0.080027,-0.990319,-0.038052,0.009404,0.028955,-2.638529,-8.269787,-45.321320,,,,,,,5
1508446701.688686,0.112354,-0.079920,0.128039,0.013586,0.001329,-0.019050,0.111760,0.079835,-0.990523,-0.033284,-0.013062,0.005111,-2.728497,-8.274711,-45.315094,,,,,,,5
1508446701.708713,0.112218,-0.079769,0.127663,0.006131,-0.014583,-0.013800,0.111626,0.079684,-0.990550,-0.007790,-0.023471,-0.017522,-2.726539,-8.286139,-45.313122,,,,,,,5
1508446701.728719,0.111646,-0.079125,0.127554,-0.018356,-0.045344,-0.004442,0.111066,0.079042,-0.990665,0.014301,-0.016374,-0.021435,-2.735786,-8.323874,-45.305649,,,,,,,5
1508446701.748713,0.110822,-0.079834,0.127535,-0.042846,-0.034716,-0.006766,0.110243,0.079749,-0.990700,0.014818,0.002175,-0.003258,-2.783338,-8.295420,-45.307968,,,,,,,5
1508446701.768746,0.110675,-0.081218,0.127432,-0.048162,-0.026239,-0.014257,0.110085,0.081128,-0.990606,0.001319,0.016177,0.002614,-2.789745,-8.235433,-45.318520,,,,,,,5
1508446701.788758,0.109636,-0.082032,0.127187,-0.031098,-0.073001,-0.017345,0.109049,0.081940,-0.990653,-0.009256,0.007935,-0.004845,-2.810763,-8.205256,-45.322693,,,,,,,5
1508446701.808770,0.106976,-0.082482,0.126954,-0.017236,-0.130294,-0.008739,0.106409,0.082388,-0.990903,-0.007334,-0.008520,-0.006579,-2.926816,-8.175651,-45.320698,,,,,,,5
1508446701.828758,0.104368,-0.082933,0.126873,-0.026829,-0.119655,-0.005616,0.103820,0.082838,-0.991140,-0.008010,-0.009901,0.016088,-3.016644,-8.163307,-45.317032,,,,,,,5
1508446701.848791,0.102100,-0.083319,0.126792,-0.011952,-0.068664,-0.003325,0.101569,0.083223,-0.991341,-0.014564,-0.003709,0.032037,-3.097566,-8.146284,-45.314636,,,,,,,5
1508446701.868804,0.101327,-0.083207,0.126733,0.015708,-0.019814,-0.004125,0.100804,0.083111,-0.991429,-0.037968,0.011844,0.039799,-3.204397,-8.137491,-45.308788,,,,,,,5
1508446701.888813,0.101569,-0.082804,0.126487,0.021024,0.032201,-0.014689,0.101047,0.082709,-0.991438,-0.026523,0.003396,0.018125,-3.203087,-8.156070,-45.305538,,,,,,,5
1508446701.908823,0.101983,-0.082539,0.126003,0.008243,0.071481,-0.023283,0.101460,0.082445,-0.991418,-0.021305,-0.001848,0.005593,-3.184119,-8.165121,-45.305244,,,,,,,5
1508446701.928837,0.103244,-0.082429,0.125564,0.011437,0.052377,-0.017947,0.102711,0.082335,-0.991298,-0.008534,-0.004210,-0.003255,-3.121283,-8.182132,-45.306549,,,,,,,5
1508446701.948847,0.103492,-0.081918,0.125328,0.036978,-0.010204,-0.003931,0.102961,0.081826,-0.991314,0.003103,0.007010,-0.007801,-3.092917,-8.201246,-45.305038,,,,,,,5
1508446701.968858,0.103047,-0.081266,0.125247,0.046564,-0.037810,0.001451,0.102525,0.081176,-0.991413,0.006590,0.007996,-0.012982,-3.099671,-8.219075,-45.301346,,,,,,,5
1508446701.988866,0.102303,-0.080515,0.125262,0.029519,-0.034599,0.005572,0.101794,0.080428,-0.991549,-0.003207,-0.008071,-0.011335,-3.141285,-8.266347,-45.289879,,,,,,,5
1508446702.008881,0.101793,-0.080192,0.125344,0.008219,-0.019719,0.004343,0.101290,0.080106,-0.991627,-0.004580,-0.006162,-0.005123,-3.163403,-8.282013,-45.285477,,,,,,,5
1508446702.028890,0.101093,-0.080170,0.125366,0.000767,-0.015475,0.002155,0.100596,0.080084,-0.991699,-0.010539,0.000208,0.008133,-3.177868,-8.287855,-45.283394,,,,,,,5
1508446702.048899,0.099521,-0.080307,0.125385,0.015656,-0.008025,0.009736,0.099037,0.080221,-0.991845,-0.017097,0.004053,0.018060,-3.248635,-8.287125,-45.278503,,,,,,,5
1508446702.068914,0.099134,-0.080042,0.125470,0.031615,0.017458,0.008822,0.098655,0.079956,-0.991904,-0.017097,0.005508,0.020972,-3.299292,-8.285501,-45.275143,,,,,,,5
1508446702.088916,0.099065,-0.079171,0.125563,0.053958,0.030212,0.014340,0.098594,0.079088,-0.991980,-0.018012,0.001142,0.014044,-3.290917,-8.300975,-45.272919,,,,,,,5
1508446702.108936,0.098828,-0.077070,0.125711,0.058127,0.037694,0.017558,0.098375,0.076994,-0.992167,-0.003358,-0.013105,0.003458,-3.317952,-8.390453,-45.254440,,,,,,,5
1508446702.128947,0.099664,-0.075493,0.125946,0.036838,0.034514,0.016315,0.099216,0.075422,-0.992204,0.002133,-0.007932,-0.005660,-3.290549,-8.471671,-45.241310,,,,,,,5
1508446702.148957,0.100369,-0.074644,0.126284,0.029376,0.032416,0.022640,0.099921,0.074575,-0.992197,0.001946,-0.001150,-0.011755,-3.267995,-8.511946,-45.235386,,,,,,,5
1508446702.168953,0.101214,-0.074063,0.126727,0.025108,0.041987,0.024742,0.100765,0.073995,-0.992155,0.002202,0.002650,-0.016863,-3.230884,-8.546412,-45.231552,,,,,,,5
1508446702.188958,0.102392,-0.073620,0.127175,0.010202,0.047304,0.023558,0.101936,0.073553,-0.992068,0.008065,-0.001120,-0.022428,-3.183596,-8.564423,-45.231499,,,,,,,5
1508446702.208991,0.103362,-0.073499,0.127676,-0.010024,0.032449,0.025510,0.102900,0.073433,-0.991977,0.007010,-0.002754,-0.027752,-3.164162,-8.566624,-45.232445,,,,,,,5
1508446702.229002,0.103933,-0.073315,0.128350,-0.021731,-0.003633,0.033904,0.103468,0.073249,-0.991932,0.011522,-0.005454,-0.033520,-3.125886,-8.566484,-45.235134,,,,,,,5
1508446702.249015,0.104265,-0.073824,0.129148,-0.037687,-0.029122,0.032688,0.103792,0.073757,-0.991860,0.027265,-0.000408,-0.018867,-3.104326,-8.550921,-45.239563,,,,,,,5
1508446702.269024,0.104721,-0.074975,0.129744,-0.055759,-0.025985,0.014441,0.104236,0.074905,-0.991728,0.035748,0.006471,-0.008593,-3.120358,-8.531469,-45.242130,,,,,,,5
1508446702.289037,0.104913,-0.076971,0.130180,-0.042990,-0.020674,0.015615,0.104410,0.076895,-0.991557,0.002569,0.014948,0.012355,-3.092281,-8.423946,-45.264202,,,,,,,5
1508446702.309048,0.103976,-0.077784,0.130587,-0.029180,0.017583,0.022146,0.103475,0.077706,-0.991592,-0.023901,-0.002404,0.016037,-3.114369,-8.366382,-45.273361,,,,,,,5
1508446702.329031,0.105015,-0.078566,0.131082,-0.050494,0.067512,0.018814,0.104499,0.078485,-0.991423,-0.029273,-0.006540,0.015074,-3.133207,-8.346018,-45.275822,,,,,,,5
1508446702.348955,0.106418,-0.079658,0.131475,-0.053672,0.061114,0.011329,0.105880,0.079574,-0.991190,-0.009597,-0.002822,0.004099,-3.050524,-8.275332,-45.294437,,,,,,,5
1508446702.368980,0.107216,-0.080431,0.131687,-0.030216,0.027078,0.002979,0.106665,0.080345,-0.991044,0.009928,0.004815,0.006974,-3.008820,-8.233664,-45.304825,,,,,,,5
1508446702.388988,0.108130,-0.081067,0.131706,-0.017422,0.024915,-0.006499,0.107565,0.080978,-0.990895,0.013437,0.006546,0.007115,-2.972319,-8.205916,-45.312263,,,,,,,5
1508446702.408983,0.108691,-0.081476,0.131565,-0.021676,0.030215,-0.010789,0.108118,0.081386,-0.990801,0.004767,-0.006572,-0.002714,-2.940890,-8.185751,-45.317963,,,,,,,5
1508446702.429013,0.109046,-0.081692,0.131462,-0.023805,0.008992,-0.004434,0.108467,0.081601,-0.990745,0.000404,-0.007810,-0.010338,-2.918344,-8.177456,-45.320919,,,,,,,5
1508446702.449016,0.108730,-0.081843,0.131549,-0.023813,-0.014339,0.007260,0.108152,0.081751,-0.990767,-0.004057,-0.009287,-0.010072,-2.924819,-8.175454,-45.320862,,,,,,,5
1508446702.469011,0.108547,-0.082105,0.131734,-0.041913,0.002653,0.002865,0.107969,0.082013,-0.990766,0.003359,-0.003399,0.005612,-2.947420,-8.157355,-45.322659,,,,,,,5
1508446702.489046,0.108961,-0.083223,0.131789,-0.052555,0.021750,-0.005727,0.108369,0.083127,-0.990629,0.001433,0.002063,0.006697,-2.927640,-8.112924,-45.331917,,,,,,,5
1508446702.509057,0.108760,-0.084612,0.131751,-0.045108,0.019632,-0.002473,0.108158,0.084511,-0.990535,-0.012607,0.005867,-0.001820,-2.922791,-8.067719,-45.340294,,,,,,,5
1508446702.529054,0.108650,-0.085430,0.131814,-0.040865,0.028149,0.003957,0.108041,0.085327,-0.990478,-0.008005,-0.002120,-0.005570,-2.930232,-8.008259,-45.350357,,,,,,,5
1508446702.549079,0.109458,-0.086187,0.132028,-0.050455,0.040906,0.004952,0.108834,0.086080,-0.990326,0.000892,-0.005316,0.003921,-2.911141,-7.971849,-45.357998,,,,,,,5
1508446702.569090,0.110449,-0.087322,0.132200,-0.048319,0.038769,0.001774,0.109805,0.087211,-0.990120,-0.000552,0.002465,0.013679,-2.876042,-7.942397,-45.365402,,,,,,,5
1508446702.589102,0.111279,-0.088555,0.132297,-0.035538,0.033445,-0.000254,0.110614,0.088439,-0.989921,-0.000110,0.006639,0.012809,-2.828282,-7.876384,-45.379913,,,,,,,5
1508446702.609088,0.111780,-0.089297,0.132340,-0.021687,0.014316,-0.000154,0.111103,0.089178,-0.989800,0.001171,0.007730,0.006737,-2.798995,-7.829771,-45.389793,,,,,,,5
1508446702.629123,0.112093,-0.089812,0.132362,-0.016355,0.002621,-0.002249,0.111407,0.089691,-0.989719,0.006726,0.005462,0.006489,-2.793850,-7.820926,-45.391640,,,,,,,5
1508446702.649136,0.112282,-0.090005,0.132401,-0.007981,-0.003686,0.000973,0.111593,0.089884,-0.989681,-0.000494,-0.002695,0.009990,-2.772898,-7.792330,-45.397839,,,,,,,5
1508446702.669146,0.112066,-0.090054,0.132434,-0.009046,-0.006869,0.002027,0.111378,0.089932,-0.989700,-0.003438,-0.003537,0.000519,-2.781593,-7.792273,-45.397316,,,,,,,5
1508446702.689159,0.111924,-0.090164,0.132481,-0.010110,-0.003685,0.000956,0.111236,0.090042,-0.989706,-0.002273,-0.003387,0.001776,-2.784630,-7.788107,-45.397846,,,,,,,5
1508446702.709169,0.111838,-0.090382,0.132515,-0.010114,-0.000495,0.002023,0.111149,0.090259,-0.989697,-0.002659,0.001645,0.009060,-2.794085,-7.777189,-45.399136,,,,,,,5
1508446702.729180,0.111888,-0.090952,0.132476,-0.005848,0.004793,-0.004327,0.111194,0.090826,-0.989640,-0.001346,0.008356,0.007004,-2.793162,-7.763576,-45.401520,,,,,,,5
1508446702.749192,0.112045,-0.090941,0.132383,0.005862,0.010099,-0.004226,0.111349,0.090815,-0.989623,-0.003469,0.007238,0.004638,-2.788989,-7.748870,-45.404293,,,,,,,5
1508446702.769182,0.112062,-0.090720,0.132298,0.007983,0.015420,-0.001010,0.111368,0.090596,-0.989641,-0.006906,-0.009053,-0.005919,-2.784760,-7.759591,-45.402721,,,,,,,5
1508446702.789210,0.112295,-0.090392,0.132311,-0.009048,0.009055,-0.001155,0.111601,0.090269,-0.989645,0.005556,-0.012464,-0.006342,-2.773198,-7.778063,-45.400269,,,,,,,5
1508446702.809215,0.112542,-0.090578,0.132257,-0.014352,-0.004778,-0.008663,0.111844,0.090455,-0.989600,0.007754,-0.004288,0.000526,-2.768656,-7.769350,-45.402039,,,,,,,5
1508446702.829237,0.112363,-0.090846,0.132104,-0.000624,-0.005806,-0.008590,0.111664,0.090721,-0.989596,-0.002732,0.003303,0.009112,-2.761860,-7.763172,-45.403507,,,,,,,5
1508446702.849246,0.112269,-0.090846,0.131955,0.003624,0.003764,-0.005354,0.111572,0.090721,-0.989607,-0.003570,0.001106,0.006681,-2.768723,-7.757535,-45.404053,,,,,,,5
1508446702.869256,0.112269,-0.090603,0.131841,-0.002763,0.003767,-0.005407,0.111573,0.090479,-0.989629,0.000121,-0.005015,0.002766,-2.768944,-7.764351,-45.402874,,,,,,,5
1508446702.889270,0.112329,-0.090600,0.131789,0.001498,-0.007913,-0.003251,0.111633,0.090476,-0.989622,0.002365,-0.000083,0.003340,-2.765089,-7.770681,-45.402023,,,,,,,5
1508446702.909281,0.112413,-0.090615,0.131747,0.001498,-0.004728,-0.004313,0.111716,0.090491,-0.989612,0.004312,0.001840,0.002017,-2.763776,-7.772660,-45.401768,,,,,,,5
1508446702.929290,0.112350,-0.090780,0.131644,-0.003828,0.002707,-0.005416,0.111652,0.090656,-0.989604,-0.001636,0.002209,-0.006460,-2.759049,-7.767149,-45.402996,,,,,,,5
1508446702.949303,0.112327,-0.090892,0.131526,-0.004889,-0.001545,-0.006493,0.111628,0.090767,-0.989596,0.002370,0.001670,-0.007184,-2.761711,-7.761982,-45.403721,,,,,,,5
1508446702.969313,0.112147,-0.090959,0.131426,-0.001691,-0.015349,-0.004347,0.111449,0.090834,-0.989610,0.000871,0.000093,-0.003554,-2.761880,-7.758380,-45.404324,,,,,,,5
1508446702.989324,0.111719,-0.091071,0.131385,-0.005000,-0.017425,-0.000173,0.111025,0.090945,-0.989648,-0.001772,0.002393,-0.001579,-2.770671,-7.757419,-45.403954,,,,,,,5
1508446703.009336,0.111541,-0.091264,0.131377,-0.007129,-0.006811,-0.003377,0.110847,0.091137,-0.989650,0.002389,0.001514,0.008479,-2.796115,-7.748618,-45.403896,,,,,,,5
1508446703.029347,0.111656,-0.091566,0.131230,-0.004992,0.003786,-0.010805,0.110957,0.091438,-0.989610,0.001683,0.002357,0.007951,-2.791370,-7.737717,-45.406048,,,,,,,5
1508446703.049357,0.111787,-0.091660,0.130946,0.000337,0.018630,-0.018203,0.111086,0.091532,-0.989587,-0.005236,-0.000010,0.010476,-2.784339,-7.731076,-45.407612,,,,,,,5
1508446703.069370,0.112102,-0.091602,0.130402,0.009932,0.034518,-0.029824,0.111398,0.091474,-0.989557,-0.009698,-0.003675,-0.003561,-2.765285,-7.734018,-45.408276,,,,,,,5
1508446703.089380,0.112539,-0.091283,0.129694,0.019514,0.046188,-0.032930,0.111834,0.091156,-0.989537,-0.012316,-0.002716,-0.000835,-2.740131,-7.751598,-45.406803,,,,,,,5
1508446703.109393,0.113259,-0.091029,0.128919,0.022712,0.047240,-0.035032,0.112549,0.090903,-0.989479,-0.008026,0.002420,0.005989,-2.703136,-7.766328,-45.406502,,,,,,,5
1508446703.129381,0.113983,-0.090417,0.128324,0.022614,0.019691,-0.020211,0.113272,0.090294,-0.989453,0.005472,-0.005501,-0.005420,-2.658735,-7.792749,-45.404594,,,,,,,5
1508446703.149414,0.114361,-0.090053,0.128191,-0.004025,-0.002536,-0.001282,0.113649,0.089932,-0.989442,0.011763,-0.008068,-0.008696,-2.642260,-7.812659,-45.402138,,,,,,,5
1508446703.169414,0.114651,-0.090152,0.128300,-0.018938,-0.003575,0.002853,0.113936,0.090030,-0.989400,0.012972,-0.006839,-0.003306,-2.629809,-7.820873,-45.401443,,,,,,,5
1508446703.189437,0.114668,-0.090751,0.128393,-0.005093,-0.008896,0.001899,0.113946,0.090626,-0.989345,-0.004998,0.011134,0.010600,-2.610188,-7.807012,-45.404961,,,,,,,5
1508446703.209446,0.113942,-0.091033,0.128317,0.011957,-0.021672,-0.003294,0.113225,0.090907,-0.989402,-0.009069,0.003743,0.010612,-2.634134,-7.781347,-45.407982,,,,,,,5
1508446703.229457,0.112996,-0.090762,0.128193,0.013020,-0.024854,-0.001158,0.112292,0.090637,-0.989533,-0.007861,-0.003448,0.005875,-2.670352,-7.782144,-45.405731,,,,,,,5
1508446703.249470,0.112395,-0.090265,0.128257,0.008742,-0.022689,0.009455,0.111702,0.090143,-0.989645,0.000313,-0.006738,-0.001215,-2.713178,-7.803419,-45.399544,,,,,,,5
1508446703.269465,0.112287,-0.089708,0.128430,0.006609,-0.006760,0.007321,0.111600,0.089588,-0.989707,0.005023,-0.007572,-0.002755,-2.729469,-7.826638,-45.394569,,,,,,,5
1508446703.289490,0.112593,-0.089511,0.128494,-0.007225,0.007032,-0.000236,0.111905,0.089392,-0.989690,0.002734,-0.003424,-0.003169,-2.718496,-7.843540,-45.392311,,,,,,,5
1508446703.309504,0.112571,-0.089827,0.128494,-0.007290,-0.001461,0.000744,0.111880,0.089706,-0.989664,-0.003283,0.004044,-0.003744,-2.709766,-7.836722,-45.394012,,,,,,,5
1508446703.329512,0.112324,-0.089850,0.128542,0.000167,-0.017392,0.002923,0.111636,0.089729,-0.989690,-0.000811,0.000313,-0.000789,-2.721689,-7.829629,-45.394520,,,,,,,5
1508446703.349523,0.112083,-0.089936,0.128614,-0.006225,-0.008890,0.002877,0.111396,0.089814,-0.989709,-0.000312,0.000197,0.002008,-2.729616,-7.829369,-45.394089,,,,,,,5
1508446703.369537,0.111945,-0.090048,0.128668,0.007615,-0.007834,0.002992,0.111259,0.089927,-0.989714,-0.001365,0.002740,0.003844,-2.741392,-7.821409,-45.394753,,,,,,,5
1508446703.389540,0.111794,-0.089782,0.128676,0.010816,-0.009971,-0.000177,0.111112,0.089661,-0.989755,0.001346,-0.002244,0.004403,-2.748509,-7.824369,-45.393806,,,,,,,5
1508446703.409556,0.111793,-0.089598,0.128629,0.002299,0.000646,-0.003434,0.111112,0.089478,-0.989772,0.003359,-0.002778,0.001078,-2.753197,-7.833880,-45.391884,,,,,,,5
1508446703.429571,0.111950,-0.089673,0.128631,-0.008365,0.015543,0.001813,0.111268,0.089553,-0.989747,-0.003007,0.000078,-0.001906,-2.747368,-7.838814,-45.391388,,,,,,,5
1508446703.449553,0.111929,-0.089882,0.128664,-0.006234,0.015537,0.000766,0.111244,0.089761,-0.989731,-0.006554,0.002570,-0.001510,-2.745339,-7.833031,-45.392506,,,,,,,5
1508446703.469592,0.112173,-0.089951,0.128697,-0.000948,0.008083,-0.000340,0.111486,0.089829,-0.989698,-0.004751,0.004241,-0.002200,-2.741643,-7.826067,-45.393936,,,,,,,5
1508446703.489580,0.112434,-0.089927,0.128713,0.003317,-0.001482,-0.001376,0.111744,0.089805,-0.989671,0.003704,-0.002815,0.005006,-2.727084,-7.821476,-45.395603,,,,,,,5
1508446703.509588,0.112435,-0.089904,0.128663,0.003320,-0.003610,-0.002442,0.111745,0.089783,-0.989673,-0.000813,0.000427,0.009921,-2.721721,-7.826937,-45.394985,,,,,,,5
1508446703.529613,0.112260,-0.089875,0.128677,0.006506,-0.009963,0.003967,0.111572,0.089754,-0.989695,-0.001633,0.001997,0.008662,-2.721721,-7.826937,-45.394985,,,,,,,5
1508446703.549637,0.112132,-0.089576,0.128742,0.001180,0.000659,0.002867,0.111448,0.089456,-0.989736,0.001162,-0.008005,-0.002467,-2.737891,-7.831244,-45.393265,,,,,,,5
1508446703.569644,0.112215,-0.089455,0.128746,-0.009465,0.011273,-0.001472,0.111532,0.089336,-0.989737,-0.001181,-0.002956,-0.003061,-2.735151,-7.839909,-45.391937,,,,,,,5
1508446703.589657,0.112574,-0.089815,0.128715,-0.007330,0.014445,-0.005711,0.111883,0.089695,-0.989665,0.001077,0.005459,0.012324,-2.726232,-7.840481,-45.392376,,,,,,,5
1508446703.609670,0.113064,-0.090306,0.128541,0.005429,0.017597,-0.010996,0.112363,0.090184,-0.989566,0.001559,0.009319,0.018329,-2.700246,-7.819246,-45.397591,,,,,,,5
1508446703.629669,0.113175,-0.090486,0.128309,0.013953,-0.000463,-0.009875,0.112472,0.090363,-0.989538,-0.001723,0.007187,0.005468,-2.684384,-7.804373,-45.401089,,,,,,,5
1508446703.649690,0.112848,-0.090157,0.128142,0.024597,-0.017443,-0.003411,0.112152,0.090035,-0.989604,-0.003372,0.002097,0.000010,-2.684800,-7.806698,-45.400669,,,,,,,5
1508446703.669704,0.112650,-0.088853,0.128148,0.027787,-0.029103,0.004060,0.111969,0.088736,-0.989742,0.012192,-0.019385,-0.014622,-2.710243,-7.850402,-45.391617,,,,,,,5
1508446703.689711,0.112149,-0.088228,0.128295,-0.007354,-0.036502,0.009088,0.111479,0.088114,-0.989853,0.009615,-0.017908,-0.020859,-2.721851,-7.885463,-45.384846,,,,,,,5
1508446703.709724,0.111370,-0.088553,0.128552,-0.033972,-0.039672,0.009931,0.110705,0.088437,-0.989911,0.002653,-0.008313,-0.015064,-2.741553,-7.899755,-45.381172,,,,,,,5
1508446703.729737,0.110264,-0.089612,0.128726,-0.013750,-0.019507,0.007983,0.109599,0.089492,-0.989939,-0.015117,0.015565,0.003702,-2.816878,-7.842111,-45.386559,,,,,,,5
,,,,,,,,,,,,,,,,42.293389,-71.264130,60.248924,-1.000000,-1.000000,1508446703.732437,5
1508446703.749739,0.109456,-0.090173,0.128803,0.001141,0.010225,0.007064,0.108793,0.090051,-0.989977,-0.017073,0.008216,-0.000669,-2.844064,-7.821151,-45.388481,,,,,,,5
1508446703.769758,0.109969,-0.090235,0.128831,-0.011626,0.029317,-0.003675,0.109301,0.090113,-0.989916,-0.000353,-0.003504,0.008226,-2.849547,-7.811881,-45.389736,,,,,,,5
1508446703.789755,0.110542,-0.090451,0.128731,-0.006306,0.016525,-0.006901,0.109866,0.090328,-0.989833,0.004865,0.000431,0.015300,-2.812378,-7.802567,-45.393650,,,,,,,5
1508446703.809754,0.111088,-0.090627,0.128728,0.005403,-0.000454,-0.000428,0.110405,0.090503,-0.989758,0.007256,0.002576,0.019573,-2.793723,-7.797037,-45.395752,,,,,,,5
1508446703.829784,0.111338,-0.090548,0.128741,0.007530,0.002733,-0.000408,0.110653,0.090424,-0.989737,0.008304,0.001708,0.020697,-2.793723,-7.797037,-45.395752,,,,,,,5
1508446703.849779,0.111982,-0.090735,0.128679,0.007532,0.016526,-0.005722,0.111289,0.090610,-0.989649,0.002160,0.004101,0.025553,-2.751824,-7.794257,-45.398788,,,,,,,5
1508446703.869810,0.112579,-0.090938,0.128496,0.020319,0.014374,-0.012006,0.111878,0.090813,-0.989564,0.001419,0.008644,0.044923,-2.723851,-7.790510,-45.401123,,,,,,,5
1508446703.889808,0.112797,-0.090738,0.127964,0.048042,-0.001641,-0.030955,0.112095,0.090614,-0.989557,0.000286,0.014397,0.058863,-2.723851,-7.790510,-45.401123,,,,,,,5
1508446703.909839,0.112803,-0.090653,0.126992,0.089602,-0.013413,-0.049787,0.112101,0.090528,-0.989564,-0.003749,0.020220,0.066392,-2.688608,-7.779796,-45.405060,,,,,,,5
1508446703.929820,0.112260,-0.088307,0.125660,0.142840,-0.028349,-0.050476,0.111588,0.088192,-0.989833,-0.000428,-0.000866,0.051632,-2.691459,-7.887994,-45.386215,,,,,,,5
1508446703.949857,0.111473,-0.084869,0.124480,0.179026,-0.050623,-0.035288,0.110842,0.084767,-0.990216,0.003050,-0.007955,0.045148,-2.691459,-7.887994,-45.386215,,,,,,,5
1508446703.969870,0.110964,-0.080801,0.123440,0.183284,-0.045311,-0.035248,0.110375,0.080713,-0.990607,0.004920,-0.009913,0.043357,-2.736845,-8.224053,-45.323807,,,,,,,5
1508446703.989871,0.110353,-0.077390,0.122029,0.191835,-0.015666,-0.062838,0.109799,0.077313,-0.990942,-0.005948,0.007251,0.047354,-2.744264,-8.359911,-45.298500,,,,,,,5
1508446704.009890,0.110537,-0.074467,0.119909,0.207846,0.023506,-0.098878,0.110006,0.074398,-0.991143,-0.000219,0.018925,0.052025,-2.741009,-8.510973,-45.270557,,,,,,,5
1508446704.029875,0.111518,-0.071470,0.117124,0.219587,0.052092,-0.125379,0.111003,0.071409,-0.991251,0.001027,0.018099,0.049280,-2.668664,-8.710385,-45.236935,,,,,,,5
1508446704.049911,0.112061,-0.067441,0.114075,0.244076,0.048892,-0.125179,0.111572,0.067390,-0.991469,-0.015259,0.014214,0.040205,-2.609658,-8.846056,-45.214046,,,,,,,5
1508446704.069924,0.112739,-0.062816,0.110899,0.283468,0.078590,-0.132285,0.112278,0.062774,-0.991692,-0.022861,0.017655,0.040917,-2.569642,-9.001843,-45.185581,,,,,,,5
1508446704.089937,0.113747,-0.057479,0.107245,0.366527,0.110317,-0.150788,0.113315,0.057447,-0.991897,-0.021029,0.022601,0.054031,-2.471670,-9.354140,-45.119442,,,,,,,5
1508446704.109927,0.115718,-0.050131,0.102926,0.468780,0.113368,-0.174431,0.115315,0.050110,-0.992064,-0.003208,0.020386,0.042388,-2.378078,-9.603605,-45.072037,,,,,,,5
1508446704.129958,0.117693,-0.040454,0.098230,0.519892,0.105902,-0.175080,0.117325,0.040443,-0.992270,0.004379,0.013039,0.023016,-2.273017,-9.910509,-45.010979,,,,,,,5
1508446704.149948,0.119603,-0.030834,0.093845,0.490043,0.093255,-0.150846,0.119262,0.030829,-0.992384,0.019456,-0.035941,-0.064684,-2.075933,-10.610302,-44.860733,,,,,,,5
1508446704.169977,0.119965,-0.021589,0.089944,0.477296,-0.024598,-0.134005,0.119650,0.021587,-0.992581,-0.001837,-0.061321,-0.045688,-1.997861,-11.051146,-44.757721,,,,,,,5
1508446704.189983,0.118892,-0.011520,0.086345,0.444267,-0.028775,-0.118309,0.118605,0.011520,-0.992875,-0.001646,-0.054382,-0.034133,-1.997861,-11.051146,-44.757721,,,,,,,5
1508446704.209978,0.119449,-0.003605,0.083379,0.389876,0.060578,-0.093137,0.119164,0.003605,-0.992868,-0.011056,-0.044117,-0.037497,-2.009080,-11.727160,-44.584866,,,,,,,5
1508446704.229988,0.120327,0.004478,0.080528,0.378207,0.024420,-0.106037,0.120035,-0.004478,-0.992760,0.015936,-0.010399,-0.038429,-1.914934,-12.290253,-44.437099,,,,,,,5
1508446704.250011,0.118843,0.011539,0.077195,0.363419,-0.137122,-0.127576,0.118556,-0.011539,-0.992880,0.033498,0.004398,-0.063058,-1.914934,-12.290253,-44.437099,,,,,,,5
1508446704.270038,0.115439,0.017385,0.074135,0.250544,-0.161447,-0.113620,0.115165,-0.017384,-0.993194,-0.011512,-0.010676,-0.176133,-1.968132,-12.787885,-44.294125,,,,,,,5
1508446704.290021,0.114009,0.018933,0.071691,-0.007200,-0.023195,-0.110319,0.113742,-0.018932,-0.993330,-0.104144,-0.053441,-0.122667,-2.095066,-13.058536,-44.209259,,,,,,,5
1508446704.310058,0.111536,0.018757,0.069817,-0.079667,0.117057,-0.110812,0.111286,-0.018756,-0.993611,-0.122272,-0.054822,-0.024424,-2.088897,-13.060041,-44.209103,,,,,,,5
1508446704.330071,0.114598,0.018482,0.066928,0.065224,0.149708,-0.169217,0.114327,-0.018481,-0.993271,0.004004,0.005587,0.192536,-2.056868,-13.069238,-44.207893,,,,,,,5
1508446704.350047,0.116839,0.021687,0.062762,0.250559,0.078369,-0.187971,0.116546,-0.021685,-0.992949,0.095948,0.040973,0.186064,-1.932045,-13.149914,-44.189594,,,,,,,5
1508446704.370091,0.117526,0.028094,0.059102,0.377166,0.001023,-0.110323,0.117210,-0.028090,-0.992710,0.120416,0.049392,0.134968,-1.843745,-13.320748,-44.142174,,,,,,,5
1508446704.390093,0.116263,0.035719,0.057473,0.385528,-0.093122,0.005732,0.115927,-0.035711,-0.992616,0.008218,0.054708,-0.081786,-1.829783,-13.817752,-43.989712,,,,,,,5
1508446704.410109,0.116041,0.043292,0.057265,0.371552,0.067406,0.036616,0.115673,-0.043279,-0.992344,-0.097728,0.027333,-0.047756,-1.881704,-14.069266,-43.907722,,,,,,,5
1508446704.430125,0.120060,0.050383,0.056514,0.342812,0.263740,-0.024163,0.119619,-0.050361,-0.991542,-0.107992,0.008888,-0.012838,-1.844224,-14.312424,-43.830658,,,,,,,5
1508446704.450137,0.126554,0.055725,0.054371,0.231128,0.326187,-0.107023,0.126020,-0.055696,-0.990463,0.042483,-0.061750,-0.038285,-1.475711,-14.739114,-43.703018,,,,,,,5
1508446704.470123,0.132303,0.058251,0.051305,0.098155,0.214582,-0.144407,0.131694,-0.058218,-0.989579,0.124776,-0.075998,-0.134597,-1.239775,-14.869610,-43.666126,,,,,,,5
1508446704.490159,0.132386,0.058627,0.048359,0.006742,-0.151818,-0.128402,0.131773,-0.058593,-0.989547,0.138323,-0.058930,-0.182389,-1.071223,-14.936869,-43.647629,,,,,,,5
1508446704.510151,0.127065,0.058181,0.047338,-0.018970,-0.266104,-0.005191,0.126509,-0.058148,-0.990260,-0.069044,0.010007,-0.010473,-1.117633,-14.956230,-43.639835,,,,,,,5
1508446704.530155,0.124332,0.058474,0.048252,0.035101,-0.052356,0.065690,0.123800,-0.058441,-0.990585,-0.063970,0.016570,0.086257,-1.407426,-14.943697,-43.635742,,,,,,,5
1508446704.550183,0.125283,0.060002,0.049018,0.083013,0.098323,0.023610,0.124731,-0.059966,-0.990377,-0.017126,0.018355,0.097112,-1.407426,-14.943697,-43.635742,,,,,,,5
1508446704.570207,0.127664,0.061208,0.048280,0.045891,0.098055,-0.058682,0.127079,-0.061169,-0.990005,0.082028,0.016156,0.027099,-1.368840,-15.028927,-43.607693,,,,,,,5
1508446704.590189,0.127589,0.061228,0.046266,-0.003947,-0.083806,-0.124180,0.127005,-0.061189,-0.990013,0.089533,0.011263,-0.044045,-1.254648,-15.080800,-43.593216,,,,,,,5
1508446704.610225,0.123455,0.060415,0.043769,-0.031541,-0.279243,-0.119232,0.122917,-0.060379,-0.990579,0.072411,-0.003815,-0.055183,-1.282695,-15.080746,-43.592419,,,,,,,5
1508446704.630238,0.117892,0.059643,0.042256,-0.026347,-0.246086,-0.054215,0.117410,-0.059608,-0.991293,-0.023554,-0.011758,-0.006510,-1.468441,-15.058403,-43.594280,,,,,,,5
1508446704.650231,0.115326,0.058820,0.041978,-0.058476,-0.064220,-0.000040,0.114872,-0.058786,-0.991639,-0.077106,-0.021887,-0.018553,-1.726073,-15.021061,-43.597725,,,,,,,5
1508446704.670259,0.115187,0.056871,0.042691,-0.125665,0.019876,0.038864,0.114747,-0.056840,-0.991767,-0.085618,-0.028579,-0.024712,-1.726073,-15.021061,-43.597725,,,,,,,5
1508446704.690271,0.115641,0.054082,0.043994,-0.151232,0.016732,0.047169,0.115215,-0.054056,-0.991869,-0.030467,-0.008444,-0.021315,-1.743190,-14.823739,-43.664532,,,,,,,5
1508446704.710253,0.115240,0.051425,0.045025,-0.121361,-0.039646,0.030337,0.114833,-0.051402,-0.992054,-0.003368,0.010844,0.011509,-1.750031,-14.725367,-43.697533,,,,,,,5
1508446704.730292,0.113863,0.049902,0.045953,-0.057490,-0.070430,0.046812,0.113476,-0.049881,-0.992288,-0.000881,0.010407,0.026284,-1.783340,-14.644939,-43.723206,,,,,,,5
1508446704.750304,0.113187,0.049141,0.047378,-0.054391,0.009356,0.078840,0.112809,-0.049121,-0.992402,-0.024629,0.004108,-0.000015,-1.879933,-14.566416,-43.745380,,,,,,,5
1508446704.770308,0.114582,0.047288,0.049484,-0.139651,0.096585,0.099497,0.114203,-0.047270,-0.992332,-0.042807,-0.020189,-0.008248,-1.872345,-14.516835,-43.762184,,,,,,,5
1508446704.790325,0.115768,0.044234,0.051850,-0.159851,0.043471,0.097161,0.115397,-0.044220,-0.992335,-0.043910,-0.020264,0.017496,-1.833380,-14.423515,-43.794685,,,,,,,5
1508446704.810338,0.116380,0.042777,0.053583,-0.022436,0.034785,0.064217,0.116012,-0.042764,-0.992327,-0.007705,0.037408,0.080111,-1.812492,-14.241232,-43.855167,,,,,,,5
1508446704.830322,0.117999,0.043696,0.054427,0.114925,0.061225,0.050464,0.117613,-0.043683,-0.992098,0.009035,0.013226,0.024676,-1.798414,-14.252007,-43.852242,,,,,,,5
1508446704.850359,0.119207,0.046677,0.055282,0.143646,0.062326,0.065609,0.118795,-0.046660,-0.991822,0.012857,0.004454,0.015748,-1.730765,-14.330153,-43.829491,,,,,,,5
1508446704.870348,0.120306,0.049192,0.056277,0.100002,0.053838,0.062048,0.119870,-0.049173,-0.991571,0.037783,-0.013495,-0.023489,-1.688574,-14.473574,-43.783989,,,,,,,5
1508446704.890356,0.123109,0.051345,0.057075,0.037215,0.043204,0.047680,0.122636,-0.051322,-0.991124,0.042327,-0.017907,-0.032451,-1.667854,-14.527560,-43.766899,,,,,,,5
1508446704.910381,0.123439,0.051552,0.057845,-0.008524,-0.003556,0.035555,0.122962,-0.051529,-0.991073,0.044747,-0.021636,-0.035081,-1.564279,-14.589051,-43.750267,,,,,,,5
1508446704.930406,0.122136,0.051492,0.058441,0.000064,-0.106644,0.024901,0.121671,-0.051470,-0.991235,0.045642,0.003115,-0.016181,-1.606486,-14.579607,-43.751888,,,,,,,5
1508446704.950409,0.120943,0.051424,0.058662,0.030998,-0.189547,0.015510,0.120489,-0.051402,-0.991383,0.040689,0.010310,0.004383,-1.643775,-14.568279,-43.754276,,,,,,,5
1508446704.970421,0.117143,0.052362,0.058812,0.053358,-0.180008,0.012508,0.116715,-0.052338,-0.991785,0.038070,0.011795,0.012431,-1.643775,-14.568279,-43.754276,,,,,,,5
1508446704.990438,0.115259,0.052897,0.058848,0.048016,-0.136456,0.009303,0.114843,-0.052872,-0.991976,0.016871,0.011567,0.011186,-1.894428,-14.626448,-43.724724,,,,,,,5
1508446705.010422,0.113059,0.053485,0.058767,0.019280,-0.097199,-0.009006,0.112657,-0.053459,-0.992195,0.002104,0.009041,0.002266,-1.992686,-14.653307,-43.711361,,,,,,,5
1508446705.030459,0.111192,0.053587,0.058292,-0.005183,-0.068583,-0.031545,0.110804,-0.053562,-0.992398,-0.006877,-0.002209,0.005505,-2.069769,-14.666969,-43.703194,,,,,,,5
1508446705.050472,0.109957,0.053338,0.057613,-0.007310,-0.064392,-0.035881,0.109579,-0.053313,-0.992547,-0.013800,-0.008836,0.011209,-2.145746,-14.666122,-43.699814,,,,,,,5
1508446705.070469,0.107811,0.053742,0.057076,-0.011583,-0.068605,-0.025272,0.107447,-0.053716,-0.992759,-0.017481,-0.013117,0.010611,-2.181389,-14.661970,-43.699440,,,,,,,5
1508446705.090492,0.106378,0.053396,0.056721,-0.017987,-0.072817,-0.015745,0.106026,-0.053370,-0.992930,-0.015038,-0.011266,0.007212,-2.258789,-14.683587,-43.688251,,,,,,,5
1508446705.110505,0.105080,0.052923,0.056539,-0.024393,-0.058981,-0.009399,0.104740,-0.052899,-0.993092,-0.019550,0.001293,0.003208,-2.344310,-14.659654,-43.691784,,,,,,,5
1508446705.130507,0.103015,0.052287,0.056474,-0.014826,-0.037735,-0.007175,0.102692,-0.052263,-0.993339,-0.024598,0.007067,0.003318,-2.377980,-14.645373,-43.694752,,,,,,,5
1508446705.150525,0.102386,0.052132,0.056304,-0.003113,-0.028191,-0.010265,0.102068,-0.052108,-0.993412,-0.023760,0.007400,0.000248,-2.459030,-14.623451,-43.697609,,,,,,,5
1508446705.170538,0.101008,0.051737,0.056141,-0.003121,-0.014384,-0.010255,0.100701,-0.051714,-0.993572,-0.018502,0.004534,-0.000355,-2.525403,-14.606464,-43.699501,,,,,,,5
1508446705.190524,0.100033,0.051515,0.056104,-0.009532,0.004765,-0.002840,0.099733,-0.051492,-0.993681,-0.009615,0.002206,0.001081,-2.530801,-14.603544,-43.700169,,,,,,,5
1508446705.210552,0.100403,0.051266,0.056125,-0.012744,0.024966,0.001408,0.100103,-0.051244,-0.993657,-0.009985,0.001958,0.001057,-2.567056,-14.594036,-43.701229,,,,,,,5
1508446705.230547,0.100456,0.050332,0.056217,-0.010622,0.027096,0.003556,0.100160,-0.050310,-0.993699,-0.002321,0.005327,0.001267,-2.558415,-14.574444,-43.708275,,,,,,,5
1508446705.250563,0.100825,0.050050,0.056318,-0.002103,0.017538,0.005749,0.100528,-0.050029,-0.993676,-0.001987,0.004619,0.000069,-2.540369,-14.541534,-43.720287,,,,,,,5
1508446705.270580,0.101008,0.050021,0.056469,0.003224,0.001608,0.007910,0.100710,-0.050000,-0.993659,0.001051,0.002148,0.000449,-2.533148,-14.531681,-43.723984,,,,,,,5
1508446705.290605,0.101071,0.049898,0.056672,0.002155,-0.010057,0.013216,0.100774,-0.049877,-0.993658,0.002345,0.001064,0.003180,-2.527987,-14.526150,-43.726116,,,,,,,5
1508446705.310590,0.101233,0.049863,0.056950,0.001086,-0.008985,0.015338,0.100935,-0.049843,-0.993644,0.005846,0.001838,0.004340,-2.531723,-14.521668,-43.727390,,,,,,,5
1508446705.330626,0.101323,0.049804,0.057263,-0.004240,-0.000487,0.014236,0.101025,-0.049783,-0.993638,0.004688,0.001398,0.006287,-2.531723,-14.521668,-43.727390,,,,,,,5
1508446705.350639,0.101669,0.049493,0.057466,-0.004232,0.007987,0.006789,0.101370,-0.049473,-0.993618,0.003916,0.003620,0.005047,-2.525713,-14.513721,-43.730377,,,,,,,5
1508446705.370637,0.101966,0.049333,0.057565,-0.004233,0.016479,0.004666,0.101665,-0.049313,-0.993596,0.000584,0.003063,0.004017,-2.507442,-14.497966,-43.736656,,,,,,,5
1508446705.390660,0.102465,0.049278,0.057603,0.000031,0.020712,0.000445,0.102162,-0.049258,-0.993547,0.002392,0.000217,0.004000,-2.491703,-14.489505,-43.740356,,,,,,,5
1508446705.410672,0.103117,0.049346,0.057610,0.001095,0.019654,0.001518,0.102809,-0.049326,-0.993477,0.003026,-0.001104,0.001381,-2.458557,-14.490584,-43.741875,,,,,,,5
1508446705.430667,0.103875,0.049355,0.057633,0.002163,0.012219,0.001521,0.103562,-0.049335,-0.993399,0.007827,0.001011,0.001623,-2.433412,-14.493547,-43.742298,,,,,,,5
1508446705.450693,0.104455,0.049315,0.057626,0.005367,-0.004782,0.000470,0.104138,-0.049295,-0.993340,0.010776,0.001917,0.001122,-2.404392,-14.490992,-43.744751,,,,,,,5
1508446705.470689,0.104656,0.049347,0.057572,0.005379,-0.020722,-0.001672,0.104338,-0.049327,-0.993318,0.010408,0.001430,0.000795,-2.390498,-14.493065,-43.744823,,,,,,,5
1508446705.490716,0.104330,0.049433,0.057535,0.001120,-0.024965,-0.000645,0.104013,-0.049413,-0.993348,0.004690,-0.000743,0.002533,-2.390772,-14.496397,-43.743706,,,,,,,5
1508446705.510726,0.103957,0.049425,0.057519,-0.004206,-0.020712,-0.000686,0.103643,-0.049405,-0.993387,0.003550,-0.000323,0.004327,-2.401603,-14.496902,-43.742947,,,,,,,5
1508446705.530738,0.103620,0.049300,0.057491,-0.001014,-0.013281,-0.001719,0.103309,-0.049280,-0.993428,-0.005317,0.001520,0.007878,-2.423680,-14.491388,-43.743553,,,,,,,5
1508446705.550749,0.103226,0.049165,0.057463,0.002174,-0.000535,-0.001683,0.102918,-0.049146,-0.993475,-0.005094,0.002545,0.006933,-2.437027,-14.487413,-43.744129,,,,,,,5
1508446705.570762,0.103222,0.049196,0.057427,0.000041,0.006902,-0.001695,0.102914,-0.049176,-0.993474,-0.003839,-0.000430,-0.000087,-2.442481,-14.485832,-43.744347,,,,,,,5
1508446705.590774,0.103210,0.049282,0.057378,-0.001021,0.005837,-0.002769,0.102902,-0.049262,-0.993471,-0.001767,-0.002358,0.001497,-2.442490,-14.488593,-43.743435,,,,,,,5
1508446705.610783,0.103441,0.049307,0.057368,-0.002095,0.012223,0.000421,0.103131,-0.049287,-0.993446,0.000079,-0.002013,0.002586,-2.438639,-14.490802,-43.742916,,,,,,,5
1508446705.630779,0.103688,0.049180,0.057368,-0.004222,0.014341,-0.001724,0.103377,-0.049160,-0.993427,-0.001235,0.002483,0.003146,-2.430233,-14.491646,-43.743107,,,,,,,5
1508446705.650804,0.103954,0.048962,0.057327,-0.004219,0.011151,-0.002791,0.103643,-0.048942,-0.993410,-0.000173,0.001915,0.002351,-2.412220,-14.480706,-43.747726,,,,,,,5
1508446705.670816,0.104030,0.048841,0.057294,-0.001020,-0.002657,-0.001711,0.103718,-0.048822,-0.993408,-0.002323,0.004022,0.001205,-2.405540,-14.475924,-43.749676,,,,,,,5
1508446705.690826,0.104053,0.048782,0.057254,0.005367,-0.006902,0.000468,0.103742,-0.048762,-0.993408,0.003512,0.001262,0.001526,-2.405274,-14.469798,-43.751717,,,,,,,5
1508446705.710840,0.104135,0.048898,0.057288,0.005360,-0.004764,0.003664,0.103823,-0.048879,-0.993394,0.004209,-0.000254,-0.000060,-2.404253,-14.473783,-43.750454,,,,,,,5
1508446705.730835,0.104141,0.048827,0.057313,-0.005280,-0.000528,-0.001744,0.103829,-0.048807,-0.993397,0.000937,0.001444,0.004185,-2.401712,-14.474922,-43.750217,,,,,,,5
1508446705.750860,0.104240,0.048716,0.057322,-0.006352,0.005854,0.000381,0.103927,-0.048697,-0.993392,0.000351,-0.000696,0.005263,-2.400688,-14.470574,-43.751713,,,,,,,5
1508446705.770873,0.104355,0.048521,0.057324,-0.006350,0.009034,-0.001746,0.104043,-0.048502,-0.993389,-0.002283,0.002878,0.005917,-2.391520,-14.462847,-43.754768,,,,,,,5
1508446705.790877,0.104528,0.048441,0.057260,-0.001023,0.009024,-0.003831,0.104216,-0.048422,-0.993375,-0.000852,0.000326,0.003034,-2.384889,-14.455797,-43.757462,,,,,,,5
1508446705.810894,0.104766,0.048551,0.057211,0.003231,0.005851,0.000460,0.104451,-0.048532,-0.993345,0.003963,-0.002463,0.002592,-2.378969,-14.456532,-43.757538,,,,,,,5
1508446705.830906,0.105026,0.048689,0.057255,-0.001029,0.000550,0.002551,0.104709,-0.048670,-0.993311,0.004819,-0.002569,0.001200,-2.366271,-14.463915,-43.755791,,,,,,,5
1508446705.850916,0.105111,0.048562,0.057237,-0.006342,-0.001590,-0.002818,0.104794,-0.048543,-0.993309,0.003345,0.001134,0.003700,-2.356889,-14.462379,-43.756802,,,,,,,5
1508446705.870927,0.104965,0.048486,0.057172,-0.001011,-0.010099,-0.004910,0.104649,-0.048467,-0.993327,0.001018,0.001257,0.005275,-2.357643,-14.459668,-43.757656,,,,,,,5
1508446705.890941,0.104734,0.048524,0.057138,0.004304,-0.011145,0.000457,0.104420,-0.048505,-0.993350,0.000942,-0.000109,0.001376,-2.369788,-14.459149,-43.757175,,,,,,,5
1508446705.910949,0.104622,0.048586,0.057176,-0.004218,-0.009008,0.002517,0.104308,-0.048567,-0.993358,0.003602,-0.000674,0.001888,-2.377399,-14.463077,-43.755463,,,,,,,5
1508446705.930937,0.104556,0.048379,0.057241,-0.006349,-0.006882,0.002501,0.104244,-0.048361,-0.993375,0.002705,0.002889,0.002714,-2.379223,-14.461049,-43.756035,,,,,,,5
1508446705.950975,0.104410,0.048180,0.057279,0.003234,-0.005827,0.001516,0.104100,-0.048162,-0.993400,-0.002644,0.003316,0.004905,-2.383864,-14.447005,-43.760422,,,,,,,5
1508446705.970983,0.104194,0.048368,0.057312,0.009623,-0.010076,0.002631,0.103884,-0.048349,-0.993414,-0.001895,-0.000662,0.002386,-2.391640,-14.446991,-43.759998,,,,,,,5
1508446705.990976,0.103999,0.048487,0.057340,-0.003152,-0.005828,0.000399,0.103690,-0.048468,-0.993428,-0.001639,-0.003121,0.001942,-2.403904,-14.458032,-43.755684,,,,,,,5
1508446706.011003,0.103979,0.048403,0.057357,-0.009543,0.000550,0.000351,0.103671,-0.048384,-0.993434,0.001874,-0.000291,0.005122,-2.410625,-14.454849,-43.756363,,,,,,,5
1508446706.031016,0.104074,0.048197,0.057373,-0.005288,0.002677,0.001453,0.103766,-0.048178,-0.993434,0.001398,0.002173,0.003917,-2.403996,-14.445475,-43.759827,,,,,,,5
1508446706.051006,0.104139,0.048098,0.057366,0.001106,0.000499,-0.000690,0.103830,-0.048080,-0.993432,0.000631,0.003051,0.005792,-2.401011,-14.440037,-43.761784,,,,,,,5
1508446706.071031,0.104146,0.048117,0.057354,0.001105,-0.001621,0.000373,0.103838,-0.048099,-0.993430,0.000486,0.000247,0.003669,-2.400678,-14.440823,-43.761543,,,,,,,5
1508446706.091050,0.104047,0.048092,0.057357,0.000045,-0.004815,-0.001767,0.103740,-0.048074,-0.993442,-0.000728,0.000878,0.002597,-2.402844,-14.440754,-43.761444,,,,,,,5
1508446706.111055,0.104032,0.048062,0.057318,-0.001023,-0.000561,-0.000708,0.103725,-0.048043,-0.993445,-0.000163,0.000344,0.003333,-2.404721,-14.439678,-43.761700,,,,,,,5
1508446706.131074,0.103890,0.047998,0.057313,0.000042,-0.005883,-0.000720,0.103584,-0.047980,-0.993463,-0.000282,0.001837,0.001580,-2.409197,-14.438204,-43.761936,,,,,,,5
1508446706.151068,0.103787,0.047964,0.057287,0.003234,-0.005880,0.000372,0.103482,-0.047946,-0.993475,0.001621,0.001773,0.000387,-2.413593,-14.435364,-43.762630,,,,,,,5
1508446706.171094,0.103817,0.048064,0.057289,0.003234,-0.010125,0.001433,0.103511,-0.048046,-0.993467,0.002431,0.000026,0.002684,-2.412342,-14.436872,-43.762203,,,,,,,5
1508446706.191106,0.103690,0.047921,0.057290,-0.004217,-0.011187,0.000306,0.103385,-0.047902,-0.993487,0.001168,0.001958,0.005710,-2.418434,-14.435708,-43.762249,,,,,,,5
1508446706.211104,0.103410,0.047796,0.057298,0.001105,-0.011186,0.001415,0.103108,-0.047778,-0.993522,-0.002506,0.002093,0.003044,-2.424174,-14.429524,-43.763973,,,,,,,5
1508446706.231128,0.103199,0.047855,0.057318,0.005360,-0.003751,0.001455,0.102898,-0.047837,-0.993541,-0.003731,0.000824,0.005138,-2.434709,-14.428384,-43.763763,,,,,,,5
1508446706.251115,0.103151,0.047940,0.057355,0.001098,0.002625,0.001425,0.102849,-0.047922,-0.993542,-0.001623,-0.001501,0.002285,-2.443803,-14.433078,-43.761711,,,,,,,5
1508446706.271151,0.103119,0.047885,0.057340,-0.002087,-0.000575,-0.002863,0.102818,-0.047867,-0.993548,-0.001271,0.001053,0.000811,-2.444529,-14.431440,-43.762211,,,,,,,5
1508446706.291161,0.103184,0.047849,0.057312,0.004263,0.001552,0.000357,0.102883,-0.047830,-0.993543,0.000831,0.001825,0.003354,-2.443741,-14.430140,-43.762684,,,,,,,5
1508446706.311174,0.103247,0.047961,0.057335,0.003196,0.002619,0.001413,0.102945,-0.047942,-0.993531,0.001669,-0.000581,0.001389,-2.439364,-14.433642,-43.761772,,,,,,,5
1508446706.331185,0.103361,0.047957,0.057340,-0.003187,0.002612,-0.001834,0.103058,-0.047939,-0.993519,0.002472,-0.000523,0.002247,-2.434684,-14.434817,-43.761642,,,,,,,5
1508446706.351177,0.103397,0.047924,0.057328,0.000006,0.001552,-0.000743,0.103095,-0.047905,-0.993517,0.000787,-0.000831,0.002093,-2.433584,-14.433454,-43.762157,,,,,,,5
1508446706.371202,0.103404,0.047918,0.057309,0.003200,-0.001632,0.000345,0.103101,-0.047900,-0.993517,-0.000181,0.000506,0.001726,-2.431258,-14.432514,-43.762596,,,,,,,5
1508446706.391219,0.103366,0.047988,0.057309,0.001069,-0.002690,0.001392,0.103063,-0.047970,-0.993517,0.000941,-0.001377,0.001437,-2.432326,-14.434788,-43.761787,,,,,,,5
1508446706.411205,0.103285,0.047990,0.057308,0.000011,-0.008008,-0.000750,0.102983,-0.047972,-0.993526,0.001037,-0.000124,-0.001241,-2.434318,-14.435453,-43.761456,,,,,,,5
1508446706.431240,0.103043,0.048010,0.057241,0.007427,-0.014388,-0.002843,0.102742,-0.047992,-0.993550,0.000041,0.002307,0.003529,-2.444395,-14.438481,-43.759892,,,,,,,5
1508446706.451247,0.102609,0.048224,0.057194,0.010621,-0.023939,0.000370,0.102310,-0.048206,-0.993584,0.000672,-0.000439,0.004921,-2.455271,-14.442062,-43.758106,,,,,,,5
1508446706.471261,0.101978,0.048404,0.057165,0.007430,-0.030311,0.000339,0.101682,-0.048385,-0.993640,-0.001508,0.000076,0.002703,-2.471150,-14.448817,-43.754982,,,,,,,5
1508446706.491274,0.101567,0.048776,0.057253,0.003152,-0.020718,0.008829,0.101272,-0.048757,-0.993663,0.002259,-0.004344,-0.000340,-2.510376,-14.463282,-43.747967,,,,,,,5
1508446706.511281,0.101537,0.049054,0.057517,-0.003255,-0.009002,0.016238,0.101241,-0.049034,-0.993653,0.004564,-0.002937,0.001984,-2.516817,-14.477287,-43.742966,,,,,,,5
1508446706.531273,0.101494,0.048850,0.057817,-0.011766,-0.007949,0.011910,0.101199,-0.048830,-0.993667,0.001569,0.001864,0.003982,-2.519603,-14.476810,-43.742962,,,,,,,5
1508446706.551307,0.101240,0.048276,0.057963,-0.012818,0.002637,0.001262,0.100949,-0.048257,-0.993721,-0.007932,0.006112,0.010566,-2.526502,-14.453832,-43.750160,,,,,,,5
1508446706.571303,0.100888,0.047911,0.057953,0.002087,0.016424,-0.002864,0.100601,-0.047893,-0.993773,-0.010864,0.004420,0.009887,-2.544827,-14.432777,-43.756050,,,,,,,5
1508446706.591328,0.101163,0.048272,0.057972,0.012724,0.012195,0.004674,0.100873,-0.048253,-0.993729,-0.001355,-0.004588,0.006607,-2.542638,-14.431605,-43.756561,,,,,,,5
1508446706.611340,0.101449,0.048662,0.058085,0.003083,0.009035,0.006705,0.101155,-0.048643,-0.993681,0.006984,-0.006472,0.000669,-2.529289,-14.458891,-43.748329,,,,,,,5
1508446706.631331,0.101822,0.048681,0.058219,-0.005435,0.010102,0.006636,0.101525,-0.048662,-0.993642,0.005576,-0.001585,0.002553,-2.524652,-14.459017,-43.748554,,,,,,,5
1508446706.651362,0.102080,0.048474,0.058302,-0.005426,0.010084,0.001312,0.101783,-0.048455,-0.993626,0.001427,0.003258,0.003025,-2.511108,-14.457880,-43.749710,,,,,,,5
1508446706.671359,0.102196,0.048347,0.058312,-0.000098,0.003704,0.000287,0.101899,-0.048328,-0.993620,-0.001206,0.003696,0.002119,-2.498202,-14.444305,-43.754936,,,,,,,5
1508446706.691359,0.102300,0.048246,0.058295,-0.003288,-0.001609,-0.000808,0.102002,-0.048227,-0.993614,0.002734,0.000085,0.002190,-2.495994,-14.440952,-43.756168,,,,,,,5
1508446706.711376,0.102424,0.048068,0.058260,-0.005413,-0.002677,-0.002956,0.102127,-0.048049,-0.993610,0.005417,0.002502,0.003300,-2.492818,-14.439064,-43.756973,,,,,,,5
1508446706.731401,0.102517,0.047899,0.058166,0.004171,-0.002685,-0.003942,0.102220,-0.047881,-0.993609,0.001173,0.003356,0.003481,-2.482695,-14.428883,-43.760906,,,,,,,5
1508446706.751418,0.102411,0.048040,0.058041,0.007347,-0.005858,-0.004995,0.102114,-0.048021,-0.993613,-0.000948,0.001589,0.001532,-2.483326,-14.431185,-43.760109,,,,,,,5
1508446706.771429,0.102199,0.048303,0.057878,0.002032,-0.012241,-0.008238,0.101902,-0.048284,-0.993622,0.000042,-0.005762,-0.000976,-2.487890,-14.443613,-43.755749,,,,,,,5
1508446706.791440,0.102037,0.048323,0.057753,-0.004364,-0.010097,-0.004030,0.101741,-0.048304,-0.993638,0.001225,-0.002675,0.005372,-2.497909,-14.443967,-43.755066,,,,,,,5
1508446706.811446,0.101957,0.048247,0.057766,-0.002248,-0.001581,0.001318,0.101662,-0.048229,-0.993649,-0.000587,-0.002415,0.006635,-2.497509,-14.447123,-43.754044,,,,,,,5
1508446706.831462,0.101846,0.048184,0.057806,-0.000120,-0.000519,0.001336,0.101552,-0.048165,-0.993664,-0.002873,0.001565,0.004909,-2.502757,-14.442947,-43.755119,,,,,,,5
1508446706.851474,0.101575,0.048166,0.057827,0.006274,-0.006901,0.000319,0.101283,-0.048148,-0.993692,-0.004298,0.000678,0.001153,-2.511014,-14.439277,-43.755859,,,,,,,5
1508446706.871452,0.101280,0.048285,0.057827,0.006274,-0.006901,0.000319,0.100989,-0.048266,-0.993716,-0.002143,0.000063,0.001284,-2.525630,-14.441889,-43.754158,,,,,,,5
1508446706.891496,0.101300,0.048430,0.057852,-0.002250,-0.001577,0.002383,0.101008,-0.048411,-0.993707,0.001897,-0.000920,0.000497,-2.532120,-14.449984,-43.751106,,,,,,,5
1508446706.911507,0.101333,0.048243,0.057897,-0.008703,0.003760,0.001260,0.101042,-0.048225,-0.993713,0.000231,0.001945,0.003677,-2.530679,-14.444582,-43.752975,,,,,,,5
1508446706.931491,0.101587,0.048042,0.057965,-0.005519,0.017576,0.003426,0.101296,-0.048024,-0.993697,-0.001061,0.001484,0.006041,-2.525555,-14.437750,-43.755524,,,,,,,5
1508446706.951528,0.101904,0.047890,0.058014,-0.002322,0.021813,0.000261,0.101611,-0.047872,-0.993672,-0.003680,0.002736,0.004597,-2.511155,-14.430996,-43.758583,,,,,,,5
1508446706.971541,0.102286,0.047774,0.058021,-0.003382,0.019681,-0.001879,0.101991,-0.047755,-0.993638,0.002059,-0.002156,0.005739,-2.493524,-14.422195,-43.762493,,,,,,,5
1508446706.991530,0.102571,0.047727,0.057950,0.004085,-0.000513,-0.003962,0.102275,-0.047709,-0.993611,0.003484,0.000575,-0.001857,-2.480952,-14.419317,-43.764153,,,,,,,5
1508446707.011562,0.102497,0.048056,0.057886,0.014730,-0.013247,0.001440,0.102200,-0.048037,-0.993603,0.004352,-0.003782,-0.001575,-2.478105,-14.423953,-43.762791,,,,,,,5
1508446707.031578,0.102387,0.048423,0.057928,0.003019,-0.018549,0.002404,0.102089,-0.048404,-0.993597,0.010094,-0.006359,-0.001719,-2.480230,-14.449615,-43.754204,,,,,,,5
1508446707.051558,0.102410,0.048306,0.057937,-0.010818,-0.019610,0.000160,0.102112,-0.048287,-0.993600,0.005829,0.000741,0.003915,-2.482297,-14.450354,-43.753841,,,,,,,5
1508446707.071575,0.102050,0.048094,0.057939,-0.005499,-0.011114,0.000210,0.101755,-0.048076,-0.993647,-0.003611,0.002635,0.009242,-2.493587,-14.438801,-43.757015,,,,,,,5
1508446707.091600,0.101482,0.047956,0.057950,0.002954,-0.008967,-0.000790,0.101192,-0.047938,-0.993711,-0.010020,0.002390,0.004972,-2.510231,-14.431787,-43.758377,,,,,,,5
1508446707.111617,0.101431,0.048040,0.057926,0.004010,0.000601,0.001355,0.101141,-0.048021,-0.993712,-0.004431,-0.000975,0.004500,-2.525683,-14.432148,-43.757366,,,,,,,5
1508446707.131630,0.101381,0.048163,0.057913,0.004015,0.002715,-0.001837,0.101090,-0.048144,-0.993712,-0.003403,-0.001599,0.000975,-2.529063,-14.437760,-43.755322,,,,,,,5
1508446707.151642,0.101532,0.048226,0.057864,0.002947,0.008028,-0.001842,0.101240,-0.048207,-0.993693,0.000979,-0.000621,0.003139,-2.524494,-14.440407,-43.754711,,,,,,,5
1508446707.171645,0.101779,0.048359,0.057850,-0.001316,0.010162,0.000254,0.101485,-0.048340,-0.993662,0.000993,-0.003708,0.003260,-2.516177,-14.442986,-43.754337,,,,,,,5
1508446707.191663,0.101871,0.048281,0.057858,-0.009828,0.001664,-0.000888,0.101576,-0.048263,-0.993656,-0.000349,0.000106,0.004200,-2.507442,-14.448389,-43.753059,,,,,,,5
1508446707.211675,0.101920,0.047992,0.057826,-0.005564,-0.000469,-0.002984,0.101627,-0.047973,-0.993665,-0.001971,0.002471,0.007749,-2.501705,-14.436110,-43.757439,,,,,,,5
1508446707.231682,0.101838,0.047942,0.057810,0.005074,0.001665,0.001365,0.101545,-0.047924,-0.993676,-0.001646,0.001217,0.005761,-2.505544,-14.429576,-43.759369,,,,,,,5
1508446707.251696,0.101892,0.048155,0.057806,0.008203,0.004876,0.001386,0.101598,-0.048136,-0.993660,-0.000570,-0.001760,0.000588,-2.505540,-14.433766,-43.757992,,,,,,,5
1508446707.271708,0.102077,0.048347,0.057769,0.000756,0.004869,-0.001870,0.101781,-0.048328,-0.993632,0.006114,-0.003659,0.002009,-2.497161,-14.447844,-43.753826,,,,,,,5
1508446707.291721,0.102338,0.048428,0.057738,-0.004568,0.002752,-0.000851,0.102039,-0.048409,-0.993602,0.003384,-0.001594,0.001277,-2.489693,-14.451641,-43.752995,,,,,,,5
1508446707.311730,0.102428,0.048286,0.057730,-0.004565,-0.003622,-0.000856,0.102130,-0.048267,-0.993599,0.003339,0.002170,0.003701,-2.483679,-14.449766,-43.753956,,,,,,,5
1508446707.331629,0.102255,0.048213,0.057738,0.000761,-0.013182,0.000246,0.101958,-0.048194,-0.993621,-0.001204,0.001975,0.003554,-2.484715,-14.442286,-43.756371,,,,,,,5
1508446707.351619,0.101949,0.048341,0.057757,0.009276,-0.013178,0.002446,0.101653,-0.048322,-0.993646,-0.000365,-0.000857,0.002297,-2.494729,-14.442887,-43.755600,,,,,,,5
1508446707.371650,0.101738,0.048493,0.057819,0.001819,-0.008921,0.003452,0.101443,-0.048474,-0.993660,0.001676,-0.001377,0.001350,-2.508173,-14.451133,-43.752106,,,,,,,5
1508446707.391643,0.101544,0.048357,0.057847,-0.006750,-0.003597,-0.000881,0.101251,-0.048338,-0.993686,-0.003503,0.002104,0.003268,-2.515882,-14.451664,-43.751492,,,,,,,5
1508446707.411674,0.101426,0.048169,0.057817,-0.002490,-0.000420,-0.002973,0.101135,-0.048150,-0.993707,-0.003952,0.003625,0.003320,-2.520851,-14.445488,-43.753242,,,,,,,5
1508446707.431660,0.101277,0.048197,0.057788,0.004960,-0.000417,-0.000782,0.100987,-0.048179,-0.993721,-0.005879,0.000297,0.002326,-2.530994,-14.439922,-43.754494,,,,,,,5
1508446707.451685,0.101149,0.048294,0.057774,0.002827,0.002775,0.000268,0.100859,-0.048275,-0.993729,-0.000868,-0.002552,0.002991,-2.536407,-14.442035,-43.753483,,,,,,,5
1508446707.471703,0.101253,0.048329,0.057765,0.001760,0.005963,0.000262,0.100962,-0.048310,-0.993717,-0.000422,-0.000610,0.002368,-2.534300,-14.446515,-43.752129,,,,,,,5
1508446707.491716,0.101457,0.048301,0.057748,-0.003560,0.007021,-0.001911,0.101165,-0.048282,-0.993697,0.002259,-0.000195,0.006408,-2.525817,-14.447474,-43.752304,,,,,,,5
1508446707.511729,0.101552,0.048230,0.057706,-0.003557,0.003830,-0.002978,0.101259,-0.048211,-0.993691,0.000120,-0.001593,0.005990,-2.519072,-14.444164,-43.753784,,,,,,,5
1508446707.531730,0.101547,0.048229,0.057666,-0.001427,0.000647,-0.001898,0.101255,-0.048210,-0.993692,-0.001676,-0.001701,0.000146,-2.515912,-14.441941,-43.754700,,,,,,,5
1508446707.551749,0.101590,0.048361,0.057664,0.002825,-0.000403,0.002395,0.101297,-0.048342,-0.993681,0.002066,-0.001463,0.003065,-2.518657,-14.446110,-43.753166,,,,,,,5
1508446707.571761,0.101778,0.048372,0.057720,-0.001498,0.001755,0.002353,0.101483,-0.048353,-0.993661,0.004611,-0.000033,0.004083,-2.516093,-14.449464,-43.752205,,,,,,,5
1508446707.591757,0.101897,0.048341,0.057725,-0.000426,-0.001444,-0.000835,0.101602,-0.048323,-0.993651,0.003272,0.000822,0.003050,-2.508228,-14.448982,-43.752811,,,,,,,5
1508446707.611783,0.101956,0.048369,0.057688,0.003833,-0.002508,-0.000800,0.101661,-0.048350,-0.993643,0.002694,0.000957,0.003424,-2.503406,-14.448522,-43.753242,,,,,,,5
1508446707.631796,0.101931,0.048534,0.057686,-0.001490,-0.006750,0.000217,0.101635,-0.048515,-0.993638,-0.000958,-0.002801,0.000245,-2.500122,-14.457024,-43.750622,,,,,,,5
1508446707.651787,0.101617,0.048465,0.057673,-0.003613,-0.015251,-0.000871,0.101323,-0.048446,-0.993673,-0.001408,-0.000138,0.001348,-2.506769,-14.455134,-43.750866,,,,,,,5
1508446707.671817,0.101364,0.048518,0.057700,0.003829,-0.007803,0.003455,0.101071,-0.048499,-0.993696,-0.001797,0.000053,0.004194,-2.518391,-14.453741,-43.750660,,,,,,,5
1508446707.691829,0.101268,0.048580,0.057771,-0.000431,-0.006738,0.003420,0.100976,-0.048561,-0.993703,0.002265,0.001091,0.001790,-2.530011,-14.458261,-43.748493,,,,,,,5
1508446707.711812,0.101133,0.048358,0.057765,-0.003616,-0.007817,-0.001931,0.100842,-0.048340,-0.993727,-0.001233,0.003006,0.003188,-2.532779,-14.454111,-43.749706,,,,,,,5
1508446707.731852,0.100842,0.048319,0.057744,0.001657,-0.008840,-0.000829,0.100554,-0.048301,-0.993758,-0.003798,0.000983,0.003478,-2.540632,-14.448186,-43.751205,,,,,,,5
1508446707.751857,0.100415,0.048608,0.057769,0.003782,-0.006709,0.001319,0.100128,-0.048589,-0.993787,-0.003372,-0.003001,0.005277,-2.563336,-14.454059,-43.747944,,,,,,,5
1508446707.771873,0.100381,0.048661,0.057799,-0.003674,0.000731,0.001263,0.100094,-0.048642,-0.993788,-0.000027,-0.002978,0.003935,-2.571013,-14.458852,-43.745911,,,,,,,5
1508446707.791859,0.100425,0.048594,0.057828,-0.002611,0.003918,0.001275,0.100138,-0.048575,-0.993787,-0.001139,-0.000452,0.005048,-2.570959,-14.459942,-43.745552,,,,,,,5
1508446707.811882,0.100519,0.048606,0.057832,0.001651,0.004971,-0.000819,0.100231,-0.048587,-0.993777,-0.000057,0.002917,0.003924,-2.566444,-14.458443,-43.746315,,,,,,,5
1508446707.831902,0.100614,0.048657,0.057800,0.003781,0.003907,-0.000802,0.100326,-0.048638,-0.993765,0.000199,-0.000434,0.002783,-2.562695,-14.459805,-43.746086,,,,,,,5
1508446707.851918,0.100517,0.048694,0.057808,0.000590,-0.008831,0.001291,0.100229,-0.048675,-0.993773,-0.000727,-0.000108,0.001448,-2.562300,-14.462557,-43.745197,,,,,,,5
1508446707.871929,0.100498,0.048677,0.057812,-0.000522,-0.006667,0.001278,0.100210,-0.048658,-0.993776,0.002848,0.000379,0.003953,-2.570338,-14.462461,-43.744755,,,,,,,5
1508446707.891913,0.100453,0.048672,0.057865,-0.001591,-0.000289,0.002339,0.100165,-0.048652,-0.993781,0.001901,-0.000633,0.001212,-2.567995,-14.462177,-43.744987,,,,,,,5
1508446707.911951,0.100541,0.048492,0.057910,-0.006914,0.003957,0.000169,0.100253,-0.048473,-0.993780,-0.000507,0.001186,0.002631,-2.566224,-14.458339,-43.746361,,,,,,,5
1508446707.931963,0.100570,0.048212,0.057891,-0.011170,0.010322,-0.003056,0.100284,-0.048193,-0.993791,-0.002613,0.001471,0.003953,-2.562084,-14.445982,-43.750687,,,,,,,5
1508446707.951952,0.100623,0.047981,0.057884,-0.010113,0.016702,-0.000913,0.100337,-0.047963,-0.993797,-0.003139,-0.001232,0.000816,-2.563135,-14.434011,-43.754578,,,,,,,5
1508446707.971984,0.100756,0.048004,0.057871,-0.010106,0.015628,-0.004108,0.100470,-0.047985,-0.993782,-0.002966,-0.003879,-0.000938,-2.557747,-14.431607,-43.755684,,,,,,,5
1508446707.991997,0.100829,0.047999,0.057831,-0.003714,0.000760,-0.001937,0.100542,-0.047981,-0.993775,0.001035,-0.003243,0.002351,-2.551132,-14.433346,-43.755493,,,,,,,5
1508446708.011986,0.101062,0.048149,0.057803,0.009065,-0.010923,0.000290,0.100773,-0.048130,-0.993745,0.004726,0.000645,0.006608,-2.543980,-14.436325,-43.754929,,,,,,,5
1508446708.032017,0.101073,0.048276,0.057844,0.004802,-0.014096,0.003446,0.100783,-0.048257,-0.993737,0.008150,0.000940,0.004144,-2.546498,-14.442884,-43.752621,,,,,,,5
1508446708.052029,0.100976,0.048243,0.057881,-0.005891,-0.015115,0.001221,0.100687,-0.048225,-0.993749,0.003866,0.000495,0.006276,-2.541987,-14.444081,-43.752487,,,,,,,5
1508446708.072013,0.100592,0.047980,0.057908,-0.002697,-0.012995,0.000185,0.100307,-0.047962,-0.993800,-0.003078,0.002719,0.006297,-2.552997,-14.436419,-43.754375,,,,,,,5
1508446708.092025,0.100132,0.048113,0.057948,0.011136,-0.006617,0.003498,0.099849,-0.048095,-0.993840,-0.008434,0.000884,0.006794,-2.568203,-14.433016,-43.754604,,,,,,,5
1508446708.112056,0.099783,0.048598,0.058043,0.008998,-0.000231,0.006679,0.099500,-0.048579,-0.993851,-0.001249,-0.006384,-0.000702,-2.597465,-14.446707,-43.748360,,,,,,,5
1508446708.132076,0.099947,0.048697,0.058153,-0.005906,0.004019,0.004430,0.099663,-0.048677,-0.993830,0.004494,-0.003416,-0.001333,-2.600955,-14.458178,-43.744366,,,,,,,5
1508446708.152058,0.100182,0.048496,0.058203,-0.005902,0.006133,0.001238,0.099897,-0.048477,-0.993816,0.003649,0.001693,0.002819,-2.586923,-14.454770,-43.746319,,,,,,,5
1508446708.172096,0.100253,0.048307,0.058204,-0.001637,0.001874,-0.000860,0.099968,-0.048289,-0.993818,-0.000756,0.003931,0.004545,-2.581286,-14.448756,-43.748642,,,,,,,5
1508446708.192091,0.100181,0.048355,0.058150,0.005822,-0.006632,-0.001870,0.099897,-0.048336,-0.993823,-0.000913,0.002148,0.003222,-2.581664,-14.443838,-43.750244,,,,,,,5
1508446708.212117,0.099933,0.048473,0.058107,0.004720,-0.007658,-0.001884,0.099649,-0.048454,-0.993842,-0.002482,-0.000512,0.001487,-2.590556,-14.449016,-43.748009,,,,,,,5
1508446708.232131,0.099882,0.048779,0.058104,0.006842,-0.003398,0.001331,0.099597,-0.048759,-0.993832,0.001385,-0.005745,0.003537,-2.598244,-14.453983,-43.745911,,,,,,,5
1508446708.252130,0.099992,0.048915,0.058121,-0.000612,0.002977,0.000210,0.099706,-0.048895,-0.993815,0.002650,-0.002603,0.002070,-2.597238,-14.466251,-43.741917,,,,,,,5
1508446708.272145,0.100004,0.048896,0.058106,-0.000604,-0.002346,-0.002989,0.099718,-0.048876,-0.993815,0.002638,-0.002622,0.002070,-2.597238,-14.466251,-43.741917,,,,,,,5
1508446708.292163,0.099943,0.048798,0.058088,0.001524,-0.006588,-0.000845,0.099658,-0.048778,-0.993825,0.000364,0.000973,0.003210,-2.593573,-14.466190,-43.742153,,,,,,,5
1508446708.312146,0.099746,0.048899,0.058104,0.002585,-0.004460,0.000230,0.099462,-0.048879,-0.993840,0.000056,-0.000208,0.002782,-2.600148,-14.467251,-43.741409,,,,,,,5
1508446708.332186,0.099726,0.048898,0.058128,-0.000613,0.000857,0.001273,0.099442,-0.048879,-0.993842,0.000503,0.000371,0.003486,-2.604982,-14.469994,-43.740215,,,,,,,5
1508446708.352197,0.099833,0.048858,0.058145,-0.000650,0.007263,0.000208,0.099548,-0.048838,-0.993833,0.001358,0.000681,0.003874,-2.601074,-14.467673,-43.741215,,,,,,,5
1508446708.372185,0.099990,0.048866,0.058167,0.002542,0.007266,0.001299,0.099705,-0.048847,-0.993817,-0.000751,0.001331,0.002591,-2.593829,-14.468773,-43.741283,,,,,,,5
1508446708.392217,0.100046,0.048965,0.058176,0.003613,0.003009,-0.000824,0.099759,-0.048946,-0.993807,-0.002042,-0.001759,0.002596,-2.590136,-14.468350,-43.741642,,,,,,,5
1508446708.412226,0.100023,0.049139,0.058159,0.005745,-0.004425,0.000252,0.099735,-0.049119,-0.993801,0.001369,-0.002013,0.003093,-2.591346,-14.473497,-43.739868,,,,,,,5
1508446708.432241,0.100024,0.049227,0.058175,0.001484,-0.004418,0.001282,0.099736,-0.049207,-0.993796,0.002986,-0.001010,0.002723,-2.594057,-14.481174,-43.737167,,,,,,,5
1508446708.452247,0.100100,0.049215,0.058213,-0.003841,0.001955,0.000178,0.099811,-0.049195,-0.993789,0.001583,-0.001098,0.005951,-2.592961,-14.482882,-43.736664,,,,,,,5
1508446708.472255,0.100300,0.049151,0.058171,-0.003838,0.004073,-0.001950,0.100011,-0.049131,-0.993773,-0.000249,-0.001330,0.003538,-2.580928,-14.478975,-43.738670,,,,,,,5
1508446708.492271,0.100201,0.049218,0.058157,-0.000645,0.001951,-0.000860,0.099912,-0.049198,-0.993779,-0.003614,-0.001415,0.003118,-2.580398,-14.481268,-43.737942,,,,,,,5
1508446708.512287,0.100146,0.049249,0.058158,0.000421,-0.000175,-0.000853,0.099858,-0.049229,-0.993783,-0.002903,-0.000270,0.002816,-2.583907,-14.483130,-43.737122,,,,,,,5
1508446708.532297,0.100093,0.049301,0.058127,0.002520,-0.004389,-0.001908,0.099805,-0.049281,-0.993786,-0.000134,-0.000753,0.001965,-2.587732,-14.485146,-43.736221,,,,,,,5
1508446708.552309,0.100017,0.049339,0.058112,0.002515,-0.002257,0.000223,0.099729,-0.049319,-0.993792,0.001101,0.000766,0.004397,-2.590333,-14.487711,-43.735222,,,,,,,5
1508446708.572319,0.100115,0.049395,0.058111,0.000384,0.000932,0.000208,0.099826,-0.049374,-0.993779,0.001950,-0.001315,0.004231,-2.588048,-14.490843,-43.734318,,,,,,,5
1508446708.592331,0.100143,0.049378,0.058107,-0.001742,-0.002257,-0.000877,0.099853,-0.049358,-0.993777,0.000809,-0.000523,0.001147,-2.587100,-14.489851,-43.734707,,,,,,,5
1508446708.612328,0.100074,0.049304,0.058150,-0.003879,-0.003304,0.003364,0.099786,-0.049284,-0.993788,0.000358,-0.001039,0.003813,-2.588020,-14.488815,-43.734993,,,,,,,5
1508446708.632354,0.100001,0.049258,0.058246,-0.003882,0.003071,0.003369,0.099713,-0.049238,-0.993797,-0.000287,0.000441,0.004722,-2.595148,-14.486541,-43.735321,,,,,,,5
1508446708.652364,0.100105,0.049231,0.058283,-0.001750,0.005187,0.001258,0.099817,-0.049211,-0.993788,0.000006,-0.000746,0.002913,-2.591284,-14.481915,-43.737083,,,,,,,5
1508446708.672355,0.100230,0.049257,0.058269,0.002516,-0.001196,-0.000841,0.099941,-0.049237,-0.993774,0.001942,0.000470,0.001648,-2.587124,-14.483522,-43.736801,,,,,,,5
1508446708.692386,0.100245,0.049342,0.058263,-0.002837,-0.004339,0.000173,0.099956,-0.049322,-0.993769,0.002644,-0.002558,0.003794,-2.585608,-14.484803,-43.736465,,,,,,,5
1508446708.712399,0.100240,0.049314,0.058284,-0.001773,-0.006460,0.001245,0.099951,-0.049294,-0.993771,0.001703,-0.000373,0.003307,-2.582528,-14.486726,-43.736008,,,,,,,5
1508446708.732383,0.100164,0.049263,0.058303,-0.003903,-0.002213,0.000166,0.099875,-0.049243,-0.993781,0.000177,-0.001782,0.004080,-2.585796,-14.484364,-43.736599,,,,,,,5
1508446708.752419,0.100153,0.049381,0.058341,-0.001780,0.003105,0.002317,0.099864,-0.049361,-0.993776,-0.000987,-0.003404,0.002901,-2.588360,-14.485229,-43.736160,,,,,,,5
1508446708.772431,0.100066,0.049292,0.058377,-0.001773,-0.003276,0.000183,0.099777,-0.049273,-0.993789,-0.001831,0.001619,0.002136,-2.589987,-14.487073,-43.735451,,,,,,,5
1508446708.792441,0.099989,0.049275,0.058338,0.002494,-0.010721,-0.001917,0.099701,-0.049255,-0.993798,0.003006,0.000076,0.001305,-2.595500,-14.483297,-43.736378,,,,,,,5
1508446708.812453,0.099698,0.049465,0.058312,0.003555,-0.011777,0.000221,0.099412,-0.049445,-0.993817,-0.001572,-0.001611,0.002255,-2.601341,-14.489017,-43.734135,,,,,,,5
1508446708.832465,0.099439,0.049460,0.058327,-0.007118,-0.006426,0.000132,0.099154,-0.049440,-0.993843,-0.002718,-0.000929,0.006310,-2.615827,-14.492496,-43.732117,,,,,,,5
1508446708.852475,0.099259,0.049279,0.058357,-0.009256,0.006326,0.001189,0.098975,-0.049259,-0.993870,-0.003669,0.000339,0.005467,-2.625648,-14.486447,-43.733536,,,,,,,5
1508446708.872488,0.099564,0.049101,0.058387,-0.007134,0.020136,0.001217,0.099280,-0.049081,-0.993848,-0.001517,0.001153,0.004041,-2.625363,-14.482464,-43.734871,,,,,,,5
1508446708.892482,0.099854,0.048931,0.058355,-0.004996,0.017995,-0.003026,0.099569,-0.048911,-0.993828,-0.000463,-0.000558,0.001579,-2.605141,-14.469666,-43.740318,,,,,,,5
1508446708.912508,0.100110,0.048899,0.058262,0.001401,0.009486,-0.005109,0.099823,-0.048880,-0.993804,-0.000580,-0.000620,-0.000871,-2.593625,-14.467881,-43.741589,,,,,,,5
1508446708.932514,0.100220,0.049023,0.058235,0.004591,0.002063,-0.000829,0.099932,-0.049003,-0.993787,0.000929,-0.002648,-0.000934,-2.585105,-14.472031,-43.740723,,,,,,,5
1508446708.952532,0.100346,0.049168,0.058211,-0.004988,-0.003243,-0.000912,0.100057,-0.049149,-0.993767,0.004420,-0.000763,0.002907,-2.581234,-14.478430,-43.738834,,,,,,,5
1508446708.972528,0.100325,0.048974,0.058200,-0.009248,-0.001116,-0.000946,0.100037,-0.048954,-0.993779,0.000946,0.002171,0.004200,-2.579745,-14.478137,-43.739017,,,,,,,5
1508446708.992553,0.100418,0.048790,0.058189,-0.007124,0.005261,0.000141,0.100130,-0.048770,-0.993778,-0.001390,0.001163,0.007893,-2.576253,-14.467626,-43.742699,,,,,,,5
1508446709.012548,0.100458,0.048574,0.058215,-0.007150,0.013792,-0.000922,0.100171,-0.048555,-0.993785,-0.005719,0.000337,0.002589,-2.571988,-14.458328,-43.746029,,,,,,,5
1508446709.032578,0.100686,0.048406,0.058188,-0.007150,0.020159,-0.003046,0.100398,-0.048387,-0.993770,-0.003505,-0.000014,0.004146,-2.572578,-14.454770,-43.747169,,,,,,,5
1508446709.052588,0.101092,0.048365,0.058146,-0.000765,0.023346,-0.001926,0.100802,-0.048346,-0.993731,-0.001193,-0.001474,0.002322,-2.553808,-14.446922,-43.750858,,,,,,,5
1508446709.072599,0.101662,0.048368,0.058113,-0.006087,0.021225,-0.001972,0.101368,-0.048349,-0.993673,0.004513,-0.001318,0.000906,-2.528116,-14.446477,-43.752499,,,,,,,5
1508446709.092587,0.102431,0.048215,0.058065,-0.009279,0.013796,-0.000939,0.102134,-0.048197,-0.993602,0.004083,0.001581,0.003154,-2.491542,-14.443760,-43.755489,,,,,,,5
1508446709.112619,0.102703,0.047960,0.058083,-0.012472,0.007427,0.000094,0.102405,-0.047942,-0.993587,0.002331,0.000594,0.004619,-2.478257,-14.435082,-43.759113,,,,,,,5
1508446709.132633,0.102873,0.047678,0.058108,-0.012471,0.004241,0.000092,0.102575,-0.047660,-0.993583,0.000849,0.000327,0.002982,-2.466405,-14.419714,-43.764847,,,,,,,5
1508446709.152641,0.103046,0.047424,0.058111,-0.013535,0.013792,-0.003104,0.102748,-0.047407,-0.993577,-0.001918,0.000013,0.006196,-2.460669,-14.411717,-43.767803,,,,,,,5
1508446709.172652,0.103553,0.047198,0.058090,-0.022083,0.035075,-0.004228,0.103253,-0.047181,-0.993535,0.000705,-0.002731,0.011877,-2.449474,-14.402012,-43.771626,,,,,,,5
1508446709.192662,0.105768,0.046612,0.057866,-0.045507,0.098766,-0.022474,0.105457,-0.046595,-0.993332,0.021649,-0.003195,0.012298,-2.412721,-14.393442,-43.776489,,,,,,,5
1508446709.212677,0.111176,0.045196,0.056810,-0.076304,0.113489,-0.072760,0.110834,-0.045181,-0.992811,0.054693,0.002380,-0.016130,-2.159359,-14.337286,-43.808132,,,,,,,5
1508446709.232686,0.113803,0.042894,0.054911,-0.111329,0.058101,-0.121005,0.113453,-0.042881,-0.992618,0.044735,0.002476,-0.023587,-2.051874,-14.300796,-43.825222,,,,,,,5
1508446709.252681,0.113780,0.040261,0.052605,-0.111263,-0.044975,-0.129600,0.113442,-0.040250,-0.992729,0.006064,0.008023,0.017891,-1.906735,-14.156496,-43.878597,,,,,,,5
1508446709.272711,0.112207,0.038391,0.050393,-0.060158,-0.091691,-0.114307,0.111889,-0.038382,-0.992979,0.007129,0.000189,0.032454,-1.922713,-14.094314,-43.897911,,,,,,,5
1508446709.292711,0.111032,0.037438,0.048357,-0.039951,-0.083163,-0.103487,0.110726,-0.037429,-0.993146,0.027228,-0.011094,0.011075,-1.949281,-14.055387,-43.909218,,,,,,,5
1508446709.312733,0.109167,0.035872,0.046307,-0.088912,-0.107587,-0.116691,0.108880,-0.035864,-0.993408,0.065116,-0.033060,-0.018815,-2.010225,-14.004160,-43.922840,,,,,,,5
1508446709.332743,0.106627,0.033069,0.044120,-0.146374,-0.147953,-0.124649,0.106367,-0.033063,-0.993777,0.074480,-0.031649,-0.016324,-2.061515,-13.938231,-43.941425,,,,,,,5
1508446709.352754,0.104163,0.030191,0.041880,-0.159091,-0.252061,-0.128027,0.103927,-0.030187,-0.994127,0.072281,-0.014155,-0.012465,-2.096356,-13.835798,-43.972141,,,,,,,5
1508446709.372767,0.097694,0.026816,0.039501,-0.152623,-0.365779,-0.140836,0.097503,-0.026813,-0.994874,0.054719,0.003360,0.006684,-2.362314,-13.669690,-44.010593,,,,,,,5
1508446709.392753,0.089626,0.023647,0.036702,-0.140843,-0.423229,-0.163142,0.089481,-0.023645,-0.995708,0.054959,0.002466,0.010448,-2.586845,-13.576630,-44.026772,,,,,,,5
1508446709.412786,0.081592,0.020618,0.033410,-0.125894,-0.449851,-0.180075,0.081485,-0.020616,-0.996461,0.035962,0.001634,-0.004012,-2.886357,-13.458961,-44.044277,,,,,,,5
1508446709.432801,0.072581,0.017878,0.030104,-0.122714,-0.447702,-0.172594,0.072506,-0.017878,-0.997208,-0.007717,-0.005026,0.015747,-3.324791,-13.334509,-44.051216,,,,,,,5
1508446709.452811,0.064361,0.015210,0.026607,-0.119514,-0.388283,-0.192753,0.064309,-0.015210,-0.997814,-0.022561,-0.011279,0.014446,-3.411939,-13.310377,-44.051853,,,,,,,5
1508446709.472821,0.057247,0.012570,0.022578,-0.120551,-0.355440,-0.218290,0.057211,-0.012570,-0.998283,-0.017768,-0.020404,-0.002861,-3.861304,-13.172258,-44.056271,,,,,,,5
1508446709.492833,0.049846,0.009945,0.018051,-0.116257,-0.378861,-0.240637,0.049823,-0.009944,-0.998709,-0.009280,-0.025181,0.006918,-4.188300,-13.062480,-44.059082,,,,,,,5
1508446709.512845,0.042663,0.007636,0.013303,-0.096040,-0.345946,-0.242575,0.042649,-0.007636,-0.999061,0.001983,-0.032876,0.013587,-4.450815,-12.987014,-44.055656,,,,,,,5
1508446709.532855,0.036342,0.005687,0.008461,-0.086471,-0.303472,-0.246723,0.036333,-0.005687,-0.999324,0.004850,-0.034703,0.003733,-4.623861,-12.943190,-44.050728,,,,,,,5
1508446709.552868,0.030463,0.003627,0.003882,-0.100362,-0.293815,-0.221276,0.030458,-0.003627,-0.999529,-0.009019,-0.034643,-0.000486,-4.777579,-12.902635,-44.046223,,,,,,,5
1508446709.572877,0.024771,0.001351,-0.000150,-0.109992,-0.276734,-0.198983,0.024768,-0.001351,-0.999692,-0.035053,-0.009803,0.019910,-5.078022,-12.799525,-44.042694,,,,,,,5
1508446709.592885,0.019341,-0.000650,-0.004144,-0.084429,-0.274644,-0.205159,0.019340,0.000650,-0.999813,-0.028464,-0.004465,0.018596,-5.173108,-12.761969,-44.042526,,,,,,,5
1508446709.612880,0.013467,-0.002176,-0.008484,-0.055631,-0.297046,-0.227298,0.013466,0.002176,-0.999907,0.005165,0.003363,-0.000719,-5.460363,-12.689820,-44.028694,,,,,,,5
1508446709.632910,0.006983,-0.003114,-0.013271,-0.038542,-0.336427,-0.246352,0.006983,0.003114,-0.999971,0.017766,0.000167,-0.002974,-5.625200,-12.668477,-44.014088,,,,,,,5
1508446709.652912,0.000022,-0.003748,-0.018309,-0.025750,-0.352381,-0.256910,0.000022,0.003748,-0.999993,0.024514,-0.013544,-0.004859,-5.860813,-12.664253,-43.984550,,,,,,,5
1508446709.672927,-0.006954,-0.003289,-0.023374,-0.018299,-0.375721,-0.247283,-0.006954,0.003289,-0.999970,0.001537,-0.032402,-0.010177,-6.157194,-12.713812,-43.929729,,,,,,,5
1508446709.692945,-0.014544,-0.003745,-0.027950,-0.032195,-0.375606,-0.216520,-0.014544,0.003745,-0.999887,-0.005308,-0.029471,-0.004065,-6.360556,-12.723131,-43.898045,,,,,,,5
1508446709.712955,-0.021654,-0.004372,-0.031900,-0.032259,-0.343639,-0.188813,-0.021653,0.004372,-0.999756,-0.036941,-0.027275,0.018311,-6.631425,-12.721936,-43.858292,,,,,,,5
1508446709.732969,-0.029733,-0.003821,-0.035607,-0.001407,-0.311767,-0.182146,-0.029729,0.003821,-0.999551,-0.061260,-0.021338,0.022424,-7.008610,-12.759362,-43.788712,,,,,,,5
1508446709.752953,-0.035839,-0.003517,-0.038938,0.009192,-0.294696,-0.159685,-0.035831,0.003517,-0.999352,-0.056668,-0.014870,0.025078,-7.234949,-12.790140,-43.742893,,,,,,,5
1508446709.772989,-0.040837,-0.003377,-0.042098,-0.002562,-0.225623,-0.155471,-0.040826,0.003377,-0.999161,-0.044334,-0.017003,0.024109,-7.339316,-12.805066,-43.721138,,,,,,,5
1508446709.793001,-0.044924,-0.003311,-0.044980,-0.004739,-0.193688,-0.137364,-0.044909,0.003311,-0.998986,-0.043805,-0.023986,0.001747,-7.574342,-12.837150,-43.671616,,,,,,,5
1508446709.813001,-0.048498,-0.003550,-0.047392,-0.023968,-0.165957,-0.108754,-0.048479,0.003550,-0.998818,-0.064421,-0.013834,0.008690,-7.703428,-12.845428,-43.646595,,,,,,,5
1508446709.832996,-0.051714,-0.003872,-0.049384,-0.016544,-0.152106,-0.095905,-0.051691,0.003872,-0.998656,-0.062338,-0.010143,0.013579,-7.791397,-12.842022,-43.631981,,,,,,,5
1508446709.853034,-0.054297,-0.003857,-0.051195,0.001522,-0.113841,-0.087209,-0.054269,0.003857,-0.998519,-0.051062,-0.009228,0.011458,-7.872693,-12.842803,-43.617157,,,,,,,5
1508446709.873045,-0.058786,-0.002705,-0.052862,0.001489,-0.073451,-0.078661,-0.058752,0.002705,-0.998269,-0.033549,-0.013417,-0.001533,-8.042953,-12.885800,-43.573391,,,,,,,5
1508446709.893055,-0.061307,-0.002455,-0.054196,-0.013463,-0.062742,-0.055351,-0.061269,0.002455,-0.998118,-0.032680,-0.008253,-0.002416,-8.128392,-12.916694,-43.548382,,,,,,,5
1508446709.913069,-0.064741,-0.002548,-0.055121,-0.024137,-0.059506,-0.040530,-0.064695,0.002548,-0.997902,-0.028948,-0.001815,0.003075,-8.262775,-12.938026,-43.516743,,,,,,,5
1508446709.933079,-0.066882,-0.003038,-0.056061,-0.011354,-0.038306,-0.051056,-0.066831,0.003038,-0.997760,-0.005221,-0.000017,0.011370,-8.406611,-12.915410,-43.495911,,,,,,,5
1508446709.953084,-0.067882,-0.002813,-0.056978,0.010993,-0.039354,-0.043419,-0.067830,0.002813,-0.997693,-0.004344,-0.002767,0.008710,-8.426079,-12.916487,-43.491825,,,,,,,5
1508446709.973078,-0.068830,-0.001798,-0.057799,0.010983,-0.031900,-0.038090,-0.068775,0.001798,-0.997631,-0.007885,-0.018323,-0.006123,-8.471758,-12.956288,-43.471104,,,,,,,5
1508446709.993111,-0.069751,-0.001139,-0.058214,-0.008237,-0.022226,-0.008428,-0.069694,0.001139,-0.997568,-0.013405,-0.021952,-0.007498,-8.490170,-12.982818,-43.459595,,,,,,,5
1508446710.013107,-0.070658,-0.000671,-0.058038,-0.008286,-0.006208,0.016073,-0.070599,0.000671,-0.997505,-0.027942,-0.020935,0.008094,-8.551225,-13.035435,-43.431870,,,,,,,5
1508446710.033135,-0.070665,0.001009,-0.057672,0.003398,0.028883,0.017255,-0.070606,-0.001009,-0.997504,0.010380,-0.017714,-0.001291,-8.579453,-13.078948,-43.413216,,,,,,,5
1508446710.053144,-0.069523,0.001128,-0.057405,-0.022152,0.036323,0.013855,-0.069467,-0.001128,-0.997584,0.013558,-0.012880,-0.000234,-8.546448,-13.098406,-43.413857,,,,,,,5
1508446710.073156,-0.068567,0.000801,-0.057168,-0.026404,0.022516,0.013810,-0.068513,-0.000801,-0.997650,0.011964,0.001442,0.002960,-8.484548,-13.103129,-43.424572,,,,,,,5
1508446710.093168,-0.067516,0.000501,-0.056924,0.001290,0.008687,0.011898,-0.067464,-0.000501,-0.997722,0.015890,-0.000551,0.005412,-8.454224,-13.074720,-43.439049,,,,,,,5
1508446710.113177,-0.067108,0.000712,-0.056784,0.006637,-0.007279,0.003412,-0.067058,-0.000712,-0.997749,0.016261,-0.003164,0.004814,-8.433880,-13.077170,-43.442268,,,,,,,5
1508446710.133168,-0.066740,0.001001,-0.056891,-0.002926,-0.000943,-0.009439,-0.066690,-0.001001,-0.997773,0.016977,-0.009237,0.003495,-8.400254,-13.096911,-43.442833,,,,,,,5
1508446710.153203,-0.065581,0.001438,-0.057218,-0.013556,0.000099,-0.018044,-0.065534,-0.001438,-0.997849,0.019391,-0.010006,-0.001189,-8.370107,-13.108080,-43.445286,,,,,,,5
1508446710.173213,-0.064640,0.001864,-0.057567,-0.009296,-0.002020,-0.016946,-0.064595,-0.001864,-0.997910,0.012364,-0.008665,0.000672,-8.314157,-13.130062,-43.449390,,,,,,,5
1508446710.193223,-0.064383,0.002164,-0.057915,0.003485,-0.007337,-0.016845,-0.064338,-0.002164,-0.997926,0.012230,-0.010486,-0.003753,-8.297854,-13.139001,-43.449802,,,,,,,5
1508446710.213237,-0.064033,0.002963,-0.058191,-0.002906,-0.026424,-0.008394,-0.063989,-0.002963,-0.997946,0.016473,-0.016691,0.005591,-8.269032,-13.171269,-43.445530,,,,,,,5
1508446710.233247,-0.063059,0.003744,-0.058247,-0.003977,-0.011542,-0.007327,-0.063016,-0.003744,-0.998005,0.016248,-0.010401,0.004780,-8.235243,-13.214361,-43.438858,,,,,,,5
1508446710.253257,-0.062927,0.003810,-0.058588,-0.006082,-0.019016,-0.019062,-0.062885,-0.003810,-0.998013,0.017475,-0.006535,0.003797,-8.223248,-13.223583,-43.438328,,,,,,,5
