timestamp(unix),attitude_roll(radians),attitude_pitch(radians),attitude_yaw(radians),rotation_rate_x(radians/s),rotation_rate_y(radians/s),rotation_rate_z(radians/s),gravity_x(G),gravity_y(G),gravity_z(G),user_acc_x(G),user_acc_y(G),user_acc_z(G),magnetic_field_x(microteslas),magnetic_field_y(microteslas),magnetic_field_z(microteslas),latitude(degree),longitude(degree),altitude(meter),speed(m/s),course(degree),timestamp(unix),User Mark
1508447000.711134,-0.136799,1.406887,-0.906268,0.065446,0.127095,0.071664,-0.022253,-0.986597,-0.161652,0.012762,-0.000265,-0.007583,-0.849971,-35.096340,6.571338,,,,,,,5
,,,,,,,,,,,,,,,,42.293334,-71.264222,60.291946,-1.000000,-1.000000,1508446998.569847,5
,,,,,,,,,,,,,,,,42.293332,-71.264203,60.291946,-1.000000,-1.000000,1508446985.631317,5
1508447000.731131,-0.143251,1.407387,-0.900067,0.030539,-0.171653,0.019009,-0.023225,-0.986678,-0.161017,0.030778,0.030944,-0.051202,-0.881441,-35.092457,6.587908,,,,,,,5
,,,,,,,,,,,,,,,,42.293334,-71.264222,60.291946,-1.000000,-1.000000,1508446998.569847,5
1508447000.751157,-0.147954,1.407955,-0.901282,0.006222,-0.368317,-0.022866,-0.023899,-0.986771,-0.160351,-0.030468,0.018539,-0.049548,-0.858769,-35.088989,6.609335,,,,,,,5
1508447000.771170,-0.143778,1.403330,-0.915251,0.037371,-0.410286,-0.171701,-0.023883,-0.986010,-0.164965,-0.090573,-0.002851,0.073565,-0.754858,-35.121975,6.444769,,,,,,,5
1508447000.791182,-0.152301,1.405811,-0.910751,0.133686,-0.131130,0.078455,-0.024917,-0.986421,-0.162336,-0.046769,0.026933,0.068007,-0.688431,-35.109112,6.521828,,,,,,,5
1508447000.811183,-0.159234,1.406499,-0.905921,-0.014162,-0.102701,-0.016441,-0.025934,-0.986534,-0.161490,-0.009771,0.031684,0.015677,-0.708742,-35.100819,6.564159,,,,,,,5
,,,,,,,,,,,,,,,,42.293324,-71.264230,60.291946,-1.000000,-1.000000,1508447000.790801,5
1508447000.831201,-0.150678,1.405897,-0.914235,-0.047156,0.090441,-0.079388,-0.024641,-0.986435,-0.162293,0.075117,0.029205,0.005814,-0.676715,-35.103062,6.555531,,,,,,,5
,,,,,,,,,,,,,,,,42.293313,-71.264225,60.291946,-1.000000,-1.000000,1508447000.819637,5
,,,,,,,,,,,,,,,,42.293302,-71.264221,60.291946,-1.000000,-1.000000,1508447000.828954,5
1508447000.851217,-0.140732,1.405516,-0.922590,-0.012044,0.032104,-0.048264,-0.023078,-0.986372,-0.162902,0.036277,0.015044,-0.031373,-0.646746,-35.107971,6.532238,,,,,,,5
1508447000.871204,-0.138664,1.406126,-0.925780,0.049739,-0.088970,-0.029745,-0.022658,-0.986472,-0.162353,0.006652,0.029762,-0.000961,-0.624316,-35.109509,6.526142,,,,,,,5
,,,,,,,,,,,,,,,,42.293291,-71.264216,60.291946,-1.000000,-1.000000,1508447000.844471,5
1508447000.891226,-0.137280,1.407895,-0.929604,0.101929,-0.127386,-0.048477,-0.022194,-0.986761,-0.160656,0.035256,0.043829,0.044140,-0.569669,-35.099155,6.586544,,,,,,,5
1508447000.911254,-0.137429,1.410935,-0.931928,0.181743,-0.115669,-0.027579,-0.021807,-0.987249,-0.157680,0.029269,0.051840,0.040279,-0.521826,-35.082657,6.677781,,,,,,,5
1508447000.931262,-0.143412,1.415863,-0.928153,0.289230,-0.118805,0.003118,-0.022055,-0.988022,-0.152730,-0.006037,0.043869,-0.020487,-0.501554,-35.061886,6.787539,,,,,,,5
1508447000.951279,-0.152252,1.422185,-0.922266,0.326552,-0.175183,-0.012587,-0.022456,-0.988978,-0.146353,-0.004598,0.014048,-0.094736,-0.479637,-35.009861,7.052496,,,,,,,5
1508447000.971289,-0.156393,1.428469,-0.922441,0.295824,-0.239143,-0.079968,-0.022094,-0.989888,-0.140116,0.015761,0.000707,-0.128698,-0.446329,-34.975582,7.222710,,,,,,,5
1508447000.991290,-0.149593,1.434348,-0.935087,0.274696,-0.317998,-0.152605,-0.020273,-0.990705,-0.134506,0.127359,0.006575,-0.225953,-0.345319,-34.933685,7.428071,,,,,,,5
1508447001.011315,-0.145761,1.440853,-0.946916,0.343865,-0.442124,-0.094632,-0.018821,-0.991569,-0.128204,0.077262,0.048546,-0.259324,-0.156660,-34.880020,7.682293,,,,,,,5
1508447001.031302,-0.158474,1.449064,-0.944254,0.439615,-0.527982,-0.025763,-0.019163,-0.992600,-0.119910,-0.005312,0.088333,-0.228692,-0.063944,-34.836811,7.877203,,,,,,,5
,,,,,,,,,,,,,,,,42.293270,-71.264181,60.790226,-1.000000,-1.000000,1508447001.024090,5
1508447001.051337,-0.174477,1.458489,-0.938297,0.484379,-0.475033,-0.066878,-0.019455,-0.993700,-0.110370,-0.067246,0.109087,-0.174008,0.041077,-34.765137,8.187882,,,,,,,5
1508447001.071351,-0.179502,1.469291,-0.941282,0.567479,-0.338272,-0.134232,-0.018092,-0.994853,-0.099703,-0.098379,0.109233,-0.090742,0.208364,-34.659447,8.621912,,,,,,,5
1508447001.091360,-0.176216,1.482795,-0.948160,0.714321,-0.083459,-0.154122,-0.015407,-0.996130,-0.086526,-0.117436,0.078330,-0.037146,0.352489,-34.548683,9.051086,,,,,,,5
1508447001.111373,-0.170226,1.498972,-0.953377,0.833519,0.087450,-0.172175,-0.012157,-0.997422,-0.070725,-0.116704,0.058152,-0.049804,0.410243,-34.480907,9.303590,,,,,,,5
1508447001.131387,-0.146445,1.517045,-0.976161,0.901819,-0.002043,-0.235563,-0.007840,-0.998556,-0.053150,-0.054340,0.001867,-0.074292,0.580825,-34.232536,10.171229,,,,,,,5
1508447001.151396,-0.073044,1.535880,-1.052327,0.927562,-0.203016,-0.286610,-0.002548,-0.999390,-0.034817,0.033599,0.014878,-0.085896,0.718488,-34.088470,10.635694,,,,,,,5
1508447001.171391,0.189318,1.554901,-1.319251,0.983966,-0.211479,-0.268050,0.002991,-0.999874,-0.015610,0.076599,0.025722,-0.109771,0.896335,-33.933643,11.106873,,,,,,,5
1508447001.191424,2.118571,1.562510,3.030978,0.992274,-0.190900,-0.154039,0.007074,-0.999966,0.004316,0.072180,0.033657,-0.189054,1.220657,-33.583294,12.096700,,,,,,,5
1508447001.211416,2.815467,1.546399,2.327171,0.906869,-0.463150,0.052676,0.007815,-0.999702,0.023109,0.011899,0.071510,-0.121009,1.344943,-33.341831,12.734653,,,,,,,5
1508447001.231445,3.031834,1.530893,2.100789,0.771268,-0.415627,0.254959,0.004370,-0.999204,0.039653,0.008493,0.107755,-0.060954,1.381160,-33.227749,13.025638,,,,,,,5
1508447001.251458,-3.132110,1.520135,1.980113,0.378147,0.150460,0.192567,-0.000480,-0.998717,0.050637,0.002220,0.155669,-0.132302,1.269177,-32.952343,13.718245,,,,,,,5
1508447001.271470,-3.119456,1.517189,1.972933,0.078311,0.239980,-0.074962,-0.001186,-0.998563,0.053569,-0.038365,0.037473,-0.235454,1.159294,-32.899929,13.853112,,,,,,,5
1508447001.291461,3.103642,1.513075,2.035109,0.313981,0.034310,-0.222236,0.002189,-0.998335,0.057648,-0.056831,-0.020479,-0.019211,1.163482,-32.867268,13.930074,,,,,,,5
1508447001.311487,3.027604,1.503350,2.110874,0.541984,-0.036149,-0.286422,0.007666,-0.997726,0.066958,-0.048574,0.051315,0.254270,1.359715,-32.727520,14.237934,,,,,,,5
1508447001.331507,2.987950,1.489468,2.152115,0.765324,0.165889,-0.197116,0.012433,-0.996695,0.080282,-0.053906,0.073263,0.317652,1.527178,-32.543251,14.637711,,,,,,,5
1508447001.351519,3.006769,1.469350,2.137703,1.172774,0.213065,-0.011646,0.013613,-0.994859,0.100353,-0.076616,0.060777,0.339069,1.554416,-32.349991,15.057215,,,,,,,5
1508447001.371515,3.048398,1.439936,2.097796,1.657133,0.019859,0.100810,0.012143,-0.991450,0.129921,-0.105237,-0.028951,0.186897,1.477193,-31.842596,16.109777,,,,,,,5
1508447001.391543,3.080929,1.404891,2.063142,1.763669,-0.123591,0.106905,0.010012,-0.986269,0.164841,-0.044634,-0.131605,0.068527,1.419232,-31.266335,17.206394,,,,,,,5
1508447001.411554,3.088512,1.373353,2.057424,1.427448,0.279393,-0.144716,0.010407,-0.980571,0.195887,0.016295,-0.087056,0.084203,1.407504,-30.818060,17.997898,,,,,,,5
1508447001.431567,3.082705,1.349786,2.073890,1.045221,0.638269,-0.257268,0.012902,-0.975676,0.218836,-0.041115,0.081572,0.097296,1.373424,-30.202045,19.015997,,,,,,,5
1508447001.451559,3.082315,1.329199,2.091215,1.042965,0.902781,-0.260281,0.014174,-0.970957,0.238834,-0.123870,0.192896,-0.021564,1.281341,-29.903027,19.489105,,,,,,,5
1508447001.471590,3.084884,1.305996,2.106300,1.205919,0.773125,-0.250516,0.014834,-0.965145,0.261295,-0.117586,0.152202,-0.198200,1.080579,-29.474049,20.143753,,,,,,,5
1508447001.491603,3.083541,1.281264,2.118463,1.203953,0.357843,-0.225293,0.016565,-0.958378,0.285023,0.063697,0.028126,-0.259296,0.916386,-28.842510,21.045851,,,,,,,5
1508447001.511618,3.077531,1.258976,2.127664,1.029443,0.020234,-0.190787,0.019640,-0.951777,0.306162,0.257383,-0.098272,-0.286875,0.924434,-28.465958,21.552094,,,,,,,5
1508447001.531626,3.070365,1.241337,2.131995,0.789806,-0.248002,-0.074781,0.023025,-0.946218,0.322711,0.288468,-0.130824,-0.319064,0.997286,-28.127878,21.988312,,,,,,,5
1508447001.551641,3.065437,1.226980,2.127819,0.704567,-0.573649,0.052038,0.025646,-0.941475,0.336106,0.128132,-0.055214,-0.268555,1.239598,-27.600384,22.634932,,,,,,,5
1508447001.571652,3.056469,1.212809,2.121803,0.723871,-0.788313,0.033935,0.029791,-0.936604,0.349121,0.017649,0.002980,-0.055558,1.438976,-27.359922,22.913357,,,,,,,5
1508447001.591663,3.045486,1.197868,2.117538,0.778204,-0.702440,-0.008142,0.034962,-0.931264,0.362663,-0.014073,0.032827,0.021310,1.694881,-27.110298,23.190886,,,,,,,5
1508447001.611679,3.034598,1.180511,2.114903,0.932677,-0.675098,-0.064342,0.040629,-0.924801,0.378277,-0.040659,0.068279,0.060429,2.199080,-26.544025,23.795731,,,,,,,5
1508447001.631688,3.022285,1.159362,2.113048,1.119043,-0.701797,-0.076666,0.047601,-0.916548,0.397081,-0.024484,0.022047,0.066572,2.575262,-26.055326,24.292919,,,,,,,5
1508447001.651691,3.015121,1.136709,2.106631,1.122000,-0.623853,0.036281,0.053050,-0.907254,0.417224,0.038197,-0.021365,0.051221,2.845850,-25.635080,24.706310,,,,,,,5
1508447001.671686,3.009408,1.116778,2.099097,0.943189,-0.624952,-0.001398,0.057805,-0.898692,0.434754,0.085155,0.018916,0.015762,3.216449,-24.967110,25.336845,,,,,,,5
1508447001.691724,2.998156,1.097553,2.097362,1.010546,-0.649952,-0.153119,0.065151,-0.890095,0.451095,0.053654,0.004627,-0.010055,3.567965,-24.482693,25.758987,,,,,,,5
1508447001.711736,2.984510,1.074316,2.101109,1.177874,-0.380803,-0.322958,0.074516,-0.879265,0.470469,-0.061714,-0.086281,-0.029231,3.775847,-24.206947,25.988934,,,,,,,5
1508447001.731725,2.974523,1.051723,2.109840,0.991512,0.018397,-0.418957,0.082494,-0.868279,0.489169,-0.213430,-0.216865,-0.183474,4.265840,-23.269604,26.757917,,,,,,,5
1508447001.751760,2.968051,1.032705,2.119830,0.871107,0.104600,-0.393267,0.088494,-0.858689,0.504800,-0.256737,-0.304077,-0.267602,4.410524,-22.734716,27.190771,,,,,,,5
1508447001.771772,2.960890,1.013567,2.127103,0.935008,-0.140619,-0.332234,0.095043,-0.848723,0.520226,-0.238949,-0.364701,-0.380837,4.518786,-22.346779,27.492908,,,,,,,5
1508447001.791785,2.954090,0.993777,2.130941,0.960431,-0.193435,-0.242626,0.101690,-0.838092,0.535967,-0.184118,-0.486752,-0.548189,4.794860,-21.657158,27.993479,,,,,,,5
1508447001.811769,2.949079,0.975010,2.130170,0.870830,-0.334211,-0.109314,0.107365,-0.827708,0.550793,-0.171070,-0.628622,-0.655011,4.957913,-21.238422,28.284386,,,,,,,5
1508447001.831807,2.943775,0.963716,2.130679,0.289457,-0.101444,-0.163980,0.112115,-0.821317,0.559346,-0.161614,-0.656786,-0.683720,5.132989,-20.864008,28.530748,,,,,,,5
1508447001.851822,2.942593,0.967701,2.141433,-0.617847,0.683595,-0.308228,0.112128,-0.823584,0.556001,-0.026755,-0.874872,-0.993150,5.219858,-20.688848,28.642321,,,,,,,5
1508447001.871817,2.939567,1.000052,2.164541,-2.514280,0.815371,-0.277998,0.108405,-0.841499,0.529270,0.024133,-0.876198,-1.370991,4.992648,-21.092089,28.387589,,,,,,,5
1508447001.891834,2.928104,1.063188,2.202734,-3.409856,1.261825,-0.335096,0.102988,-0.873909,0.475053,0.033410,-0.562706,-1.041750,4.733677,-22.117279,27.641930,,,,,,,5
1508447001.911858,2.909047,1.122080,2.244969,-2.693027,0.443753,-0.248877,0.099974,-0.901005,0.422132,0.092089,-0.080486,-0.092268,4.075027,-24.708649,25.466349,,,,,,,5
1508447001.931869,2.867098,1.160176,2.276279,-1.609561,-1.329315,-0.095405,0.108201,-0.916873,0.384234,0.152632,-0.462582,0.176816,4.286751,-25.826494,24.295555,,,,,,,5
1508447001.951880,2.809993,1.187090,2.291039,-1.411625,-2.492357,0.298240,0.121875,-0.927284,0.353966,0.156308,-0.762597,0.263985,4.912510,-26.347530,23.607903,,,,,,,5
1508447001.971878,2.759626,1.230176,2.303202,-2.608550,-1.286877,0.648091,0.124524,-0.942548,0.309997,-0.205915,-0.441104,0.112809,5.941570,-27.375181,22.157509,,,,,,,5
1508447001.991905,2.709765,1.294772,2.359741,-3.567410,0.922245,0.352236,0.114064,-0.962146,0.247515,-0.249668,-0.267681,0.019666,5.775077,-28.745731,20.395817,,,,,,,5
1508447002.011890,2.615452,1.357926,2.477700,-3.260331,0.781133,0.145974,0.106098,-0.977428,0.182693,-0.154575,-0.116108,-0.054565,5.347853,-29.820280,18.915854,,,,,,,5
1508447002.031931,2.467071,1.408233,2.631073,-2.708566,-0.208713,0.299909,0.101078,-0.986816,0.126404,-0.023106,-0.056367,0.145965,4.980480,-31.221138,16.616056,,,,,,,5
1508447002.051941,2.216158,1.453024,2.876710,-2.886545,-0.394010,0.447364,0.093869,-0.993073,0.070675,0.014590,-0.021576,0.227176,4.853656,-32.117062,14.852420,,,,,,,5
1508447002.071948,1.690033,1.485164,-2.884440,-3.012249,-0.321649,0.463417,0.084920,-0.996336,0.010174,0.074900,0.074079,0.220768,4.707217,-32.776752,13.385991,,,,,,,5
1508447002.091943,1.012673,1.482398,-2.212653,-2.689697,-0.436303,0.534137,0.074886,-0.996095,-0.046754,-0.014278,0.081026,0.247346,4.419698,-33.721783,10.907135,,,,,,,5
1508447002.111977,0.563279,1.454811,-1.767062,-2.456929,-0.072650,0.665167,0.061793,-0.993281,-0.097847,-0.073756,0.092982,0.411613,4.086680,-34.294571,9.101606,,,,,,,5
1508447002.131976,0.333273,1.416574,-1.528757,-2.395351,0.532597,0.593731,0.050252,-0.988131,-0.145160,-0.139104,0.114398,0.510577,3.740756,-34.641270,7.851583,,,,,,,5
1508447002.152002,0.219470,1.373574,-1.395412,-2.364566,1.047482,0.499612,0.042660,-0.980615,-0.191246,-0.189038,0.181619,0.527245,3.130544,-35.099030,5.823724,,,,,,,5
1508447002.172014,0.166424,1.330055,-1.316038,-2.248454,1.306261,0.394292,0.039496,-0.971161,-0.235129,-0.151923,0.218674,0.562262,2.693003,-35.360161,4.250239,,,,,,,5
1508447002.192024,0.141559,1.288840,-1.262512,-2.068462,1.325171,0.360655,0.039255,-0.960513,-0.275452,-0.044962,0.281054,0.593110,2.417087,-35.496979,3.127318,,,,,,,5
1508447002.212030,0.126263,1.251926,-1.220941,-1.801122,1.135946,0.363784,0.039477,-0.949590,-0.310998,0.105084,0.350378,0.599771,2.021895,-35.631020,1.414284,,,,,,,5
1508447002.232050,0.113119,1.221669,-1.187720,-1.411214,0.745833,0.354995,0.038613,-0.939671,-0.339892,0.153831,0.396092,0.586062,1.746698,-35.672630,0.265382,,,,,,,5
1508447002.252060,0.096227,1.200000,-1.161301,-0.950914,0.138946,0.340235,0.034815,-0.932039,-0.360682,0.173651,0.462022,0.543787,1.557847,-35.679955,-0.414505,,,,,,,5
1508447002.272075,0.068858,1.188175,-1.140560,-0.408548,-0.742169,0.329185,0.025688,-0.927689,-0.372469,0.190666,0.520112,0.468782,1.254902,-35.675854,-1.147415,,,,,,,5
1508447002.292061,0.029755,1.187564,-1.123487,0.159327,-1.346001,0.292956,0.011124,-0.927461,-0.373755,0.206084,0.503175,0.319296,0.997317,-35.678589,-1.304537,,,,,,,5
1508447002.312097,-0.011686,1.195503,-1.110014,0.489523,-1.442999,0.249824,-0.004283,-0.930400,-0.366520,0.125148,0.229640,-0.061809,0.826012,-35.687271,-1.180801,,,,,,,5
1508447002.332111,-0.055897,1.202892,-1.088760,0.195000,-0.923638,0.474576,-0.020093,-0.933083,-0.359099,-0.201220,-0.319373,-0.689043,0.522414,-35.703602,-0.798633,,,,,,,5
1508447002.352121,-0.064113,1.201062,-1.069165,-0.154841,1.280949,0.189069,-0.023152,-0.932423,-0.360625,-0.527415,-0.557841,-0.663163,0.270040,-35.707119,-0.765912,,,,,,,5
1508447002.372133,-0.028525,1.198790,-1.075495,-0.100986,1.449491,-0.211768,-0.010367,-0.931600,-0.363337,-0.507379,-0.460002,-0.661382,0.184636,-35.706032,-0.838682,,,,,,,5
1508447002.392044,0.004923,1.190812,-1.081819,-0.750762,1.320920,-0.014927,0.001826,-0.928671,-0.370901,-0.077327,-0.118723,-0.573359,0.387617,-35.699234,-1.035624,,,,,,,5
1508447002.412053,0.037432,1.159557,-1.073707,-1.729362,2.791498,0.229387,0.014960,-0.916626,-0.399466,0.060388,-0.439911,-0.940927,0.396430,-35.676151,-1.647151,,,,,,,5
1508447002.432065,0.096306,1.157626,-1.067745,1.165143,2.737981,-0.054472,0.038608,-0.915853,-0.399654,-0.127415,-0.427714,-0.360233,0.370484,-35.627346,-2.492563,,,,,,,5
1508447002.452069,0.144408,1.209183,-1.100715,2.996289,-0.208647,-0.304577,0.050912,-0.935327,-0.350102,0.172462,-0.449866,1.112980,0.636381,-35.697735,-0.961647,,,,,,,5
1508447002.472090,0.114233,1.247650,-1.106095,0.968616,-2.453494,0.562855,0.036196,-0.948241,-0.315482,0.363264,-0.072572,1.117118,0.719223,-35.706055,0.467327,,,,,,,5
1508447002.492102,0.013273,1.246466,-1.036653,-0.452877,-0.643153,1.294618,0.004230,-0.947864,-0.318646,0.499311,0.434025,1.117871,0.447956,-35.700104,0.979671,,,,,,,5
1508447002.512097,-0.014814,1.243073,-0.966502,0.344534,3.024351,0.903629,-0.004768,-0.946778,-0.321853,0.649284,1.196350,0.102767,-0.828033,-35.701183,0.630605,,,,,,,5
1508447002.532127,-0.012986,1.286404,-0.954941,3.107682,-1.763721,-0.236690,-0.003643,-0.959832,-0.280551,0.459271,0.953225,-0.484754,-1.184876,-35.676891,1.188906,,,,,,,5
1508447002.552130,-0.007676,1.365706,-1.012681,4.301742,-2.058227,-1.035197,-0.001563,-0.979042,-0.203650,0.006797,0.119805,0.379126,-1.009307,-35.587849,2.853800,,,,,,,5
1508447002.572127,0.138953,1.447222,-1.170732,3.688008,0.329780,-0.857451,0.017072,-0.992374,-0.122072,-0.331571,-0.672466,0.836962,0.232459,-34.956688,7.323518,,,,,,,5
1508447002.592163,0.276974,1.487970,-1.294468,1.122089,0.753291,0.169398,0.022623,-0.996572,-0.079579,-0.529108,-0.796504,0.420704,0.472501,-34.575893,8.941052,,,,,,,5
1508447002.612173,0.295248,1.495742,-1.292358,0.304614,1.331614,-0.139300,0.021818,-0.997185,-0.071739,-0.696257,-0.382713,-0.033043,0.212365,-34.398964,9.608543,,,,,,,5
1508447002.632188,0.584650,1.508383,-1.556074,1.419383,1.049826,-0.655230,0.034424,-0.998053,-0.052013,-0.165176,0.171500,-0.063710,0.159513,-34.253712,10.115126,,,,,,,5
1508447002.652198,1.301359,1.526093,-2.264865,2.228227,0.173517,-0.196700,0.043076,-0.999001,-0.011896,0.035018,0.262703,0.122461,0.381905,-33.867016,11.337435,,,,,,,5
1508447002.672200,2.304272,1.516134,3.015200,2.516076,0.010262,0.248486,0.040586,-0.998506,0.036576,0.085513,0.270174,0.165145,0.406323,-33.599705,12.105896,,,,,,,5
1508447002.692224,2.745731,1.475100,2.572111,2.589853,-0.062561,0.092523,0.036845,-0.995425,0.088161,0.104360,0.182894,0.088658,0.205443,-32.590267,14.611305,,,,,,,5
1508447002.712238,2.859123,1.428028,2.455282,2.315789,-0.137988,-0.252644,0.039658,-0.989826,0.136645,0.071746,-0.006466,-0.049334,0.226696,-32.008148,15.845665,,,,,,,5
1508447002.732246,2.878423,1.387766,2.435390,1.768719,0.072014,-0.432684,0.047349,-0.983297,0.175744,0.069061,-0.156993,-0.097344,0.441395,-31.262615,17.265923,,,,,,,5
1508447002.752260,2.881927,1.356020,2.434742,1.444883,0.124495,-0.359721,0.054723,-0.977024,0.205984,0.040782,-0.132351,-0.022787,0.621654,-30.788033,18.093325,,,,,,,5
1508447002.772256,2.893326,1.327141,2.421353,1.463787,-0.225212,-0.110679,0.059281,-0.970463,0.233855,0.021010,-0.041180,-0.016082,0.843679,-30.097643,19.211405,,,,,,,5
1508447002.792282,2.917192,1.296956,2.388506,1.628511,-0.465584,0.136455,0.060177,-0.962739,0.263650,0.020618,-0.012938,-0.053522,0.958541,-29.666027,19.866203,,,,,,,5
1508447002.812298,2.941129,1.264166,2.352345,1.747801,-0.560176,0.141627,0.060105,-0.953356,0.295803,0.050140,-0.029615,-0.152279,1.141860,-28.655676,21.288643,,,,,,,5
1508447002.832308,2.952328,1.229436,2.328921,1.777927,-0.547021,-0.041250,0.062983,-0.942300,0.328792,0.105963,-0.062903,-0.229701,1.280279,-28.084492,22.029076,,,,,,,5
1508447002.852319,2.953654,1.194816,2.315741,1.717348,-0.551456,-0.103509,0.068602,-0.930148,0.360719,0.097413,-0.074246,-0.312684,1.556978,-27.285604,22.994122,,,,,,,5
1508447002.872318,2.955010,1.160763,2.301914,1.751308,-0.608560,-0.023416,0.073948,-0.917108,0.391721,0.006466,-0.068824,-0.383206,1.939983,-26.270210,24.119921,,,,,,,5
1508447002.892324,2.953703,1.122190,2.284220,2.137990,-1.096245,0.013479,0.081011,-0.901052,0.426077,-0.197619,-0.108790,-0.541663,2.197021,-25.602322,24.806292,,,,,,,5
1508447002.912329,2.940858,1.075687,2.263776,2.414122,-1.778450,0.001401,0.094735,-0.879917,0.465587,-0.430093,-0.282208,-0.790996,2.609630,-24.794466,25.575031,,,,,,,5
1508447002.932354,2.921957,1.039187,2.249013,1.299140,-1.233045,-0.044656,0.110445,-0.861992,0.494743,-0.507524,-0.515464,-1.026039,3.936799,-23.036310,27.009035,,,,,,,5
1508447002.952380,2.913221,1.041636,2.254254,-1.051396,0.399586,-0.145874,0.114285,-0.863231,0.491702,-0.324001,-0.752858,-1.286914,4.307308,-22.792168,27.159199,,,,,,,5
1508447002.972391,2.900870,1.079886,2.280155,-2.288481,0.179195,-0.169029,0.112391,-0.881904,0.457836,-0.147242,-0.880944,-1.589260,4.201091,-23.138706,26.881390,,,,,,,5
1508447002.992404,2.859749,1.116408,2.311151,-1.711637,-1.149328,-0.255776,0.122073,-0.898530,0.421595,-0.198810,-0.691558,-0.733668,4.349421,-24.754757,25.376022,,,,,,,5
1508447003.012416,2.797631,1.150776,2.349534,-2.131205,-1.208422,-0.206046,0.137511,-0.913081,0.383894,0.184038,-0.357168,0.011461,5.150170,-25.615891,24.350769,,,,,,,5
1508447003.032427,2.735528,1.196482,2.398869,-2.555713,-0.757802,0.087854,0.144425,-0.930758,0.335902,0.354858,-0.406095,0.503285,5.572937,-26.429369,23.368544,,,,,,,5
1508447003.052441,2.678322,1.243536,2.436162,-2.307052,-1.456331,0.567449,0.143649,-0.946926,0.287568,0.288267,-0.670307,0.671386,5.800884,-27.307026,22.278557,,,,,,,5
1508447003.072427,2.610767,1.292211,2.466950,-2.484078,-1.986317,0.877557,0.139215,-0.961445,0.237153,0.025152,-1.069316,0.336394,6.272788,-28.902252,20.024235,,,,,,,5
1508447003.092436,2.513176,1.354363,2.535995,-3.446213,-1.025083,0.985334,0.126243,-0.976670,0.173722,-0.107474,-0.951111,0.131271,6.386189,-29.466219,19.147232,,,,,,,5
1508447003.112477,2.284687,1.418750,2.767551,-3.830193,0.262715,0.392205,0.114477,-0.988463,0.099174,0.024469,-0.546357,-0.013053,6.037333,-31.448776,15.817181,,,,,,,5
1508447003.132486,1.848341,1.460909,-3.079559,-3.164751,-0.507009,0.626036,0.105470,-0.993968,0.030048,0.334609,-0.364323,0.252529,5.832419,-32.314930,14.049414,,,,,,,5
1508447003.152499,1.272636,1.480662,-2.513832,-2.633194,-0.601170,1.120135,0.086041,-0.995941,-0.026442,0.382526,-0.231751,0.433562,5.617155,-32.999908,12.454377,,,,,,,5
1508447003.172514,0.678522,1.468239,-1.926612,-2.661813,-0.385975,0.984839,0.064257,-0.994746,-0.079701,0.069914,0.090556,0.501317,4.731381,-34.053474,9.676412,,,,,,,5
1508447003.192525,0.345052,1.430569,-1.595044,-2.507173,-0.094711,0.757416,0.047276,-0.990184,-0.131530,-0.097432,0.237667,0.513809,4.301648,-34.473492,8.290493,,,,,,,5
1508447003.212535,0.189344,1.390410,-1.433103,-2.149614,0.407472,0.725610,0.033768,-0.983774,-0.176203,-0.154907,0.354685,0.566355,3.787222,-34.898998,6.585964,,,,,,,5
1508447003.232525,0.100368,1.351271,-1.325924,-2.076587,1.066303,0.789531,0.021820,-0.976001,-0.216671,-0.130005,0.373752,0.653469,3.053514,-35.264790,4.767448,,,,,,,5
1508447003.252560,0.061149,1.310857,-1.253683,-2.085158,1.832650,0.600516,0.015707,-0.966406,-0.256542,-0.099310,0.374487,0.753139,2.420120,-35.474537,3.370190,,,,,,,5
1508447003.272558,0.069552,1.269412,-1.214317,-2.121271,2.602774,0.303778,0.020629,-0.954927,-0.296124,-0.079254,0.429628,0.790585,2.162440,-35.550480,2.673059,,,,,,,5
1508447003.292575,0.108126,1.225983,-1.192041,-2.243603,3.138554,0.085965,0.036478,-0.941138,-0.336047,-0.045419,0.529609,0.762897,1.739591,-35.669930,0.536497,,,,,,,5
1508447003.312597,0.149762,1.181195,-1.172252,-2.229602,2.778456,0.097521,0.056670,-0.925061,-0.375568,-0.029266,0.567303,0.753879,1.708380,-35.670486,-0.596509,,,,,,,5
1508447003.332607,0.164314,1.143728,-1.143690,-1.702403,1.521336,0.371367,0.067754,-0.910184,-0.408626,0.061046,0.622174,0.692866,1.679549,-35.617584,-2.055424,,,,,,,5
1508447003.352622,0.145961,1.121530,-1.110630,-0.896002,-0.013399,0.588747,0.063166,-0.900766,-0.429687,0.243825,0.694910,0.498412,1.369894,-35.532887,-3.345959,,,,,,,5
1508447003.372628,0.095723,1.118254,-1.078466,0.189583,-1.662279,0.712518,0.041791,-0.899338,-0.435252,0.312213,0.690857,0.400920,1.265039,-35.521412,-3.505274,,,,,,,5
1508447003.392643,0.017931,1.139822,-1.048223,1.551060,-2.998475,0.676962,0.007490,-0.908559,-0.417690,0.392076,0.593511,0.184535,0.543141,-35.528728,-3.615582,,,,,,,5
1508447003.412658,-0.087274,1.183420,-1.008924,2.441316,-3.634900,0.786045,-0.032927,-0.925903,-0.376323,0.356932,-0.131592,-0.311300,-0.448159,-35.666466,-1.833115,,,,,,,5
1508447003.432666,-0.206945,1.215141,-0.950053,1.087591,-2.496701,0.707588,-0.071546,-0.937419,-0.340775,0.067899,-0.978918,-1.108398,-0.967086,-35.698311,-0.594363,,,,,,,5
1508447003.452680,-0.235607,1.220661,-0.932093,0.058909,0.340888,-0.025978,-0.080073,-0.939326,-0.333548,-0.464742,-0.696980,-0.838877,-1.406028,-35.688473,0.118024,,,,,,,5
1508447003.472695,-0.193682,1.221053,-0.945362,-0.031013,2.066467,-0.242623,-0.065952,-0.939461,-0.336250,-0.573421,-0.061348,-0.413841,-1.311649,-35.692062,0.119810,,,,,,,5
1508447003.492685,-0.139298,1.217860,-0.948339,-0.343999,2.740446,0.144999,-0.047994,-0.938362,-0.342306,-0.376689,0.131416,-0.297723,-1.222385,-35.695396,0.048729,,,,,,,5
1508447003.512716,-0.095711,1.205835,-0.932877,-0.567068,2.943277,0.393526,-0.034108,-0.934138,-0.355279,-0.290187,0.116053,-0.353934,-1.295178,-35.692371,-0.187201,,,,,,,5
1508447003.532731,-0.048555,1.206801,-0.924875,0.644668,2.460707,-0.107914,-0.017279,-0.934482,-0.355591,-0.159509,0.228107,0.400086,-1.571221,-35.674866,-0.702214,,,,,,,5
1508447003.552741,0.001823,1.246399,-0.959516,2.704351,-0.179636,-0.835035,0.000581,-0.947843,-0.318737,-0.090715,-0.367480,0.691967,-1.244834,-35.693481,0.289313,,,,,,,5
1508447003.572753,0.025588,1.299041,-1.005200,2.095028,-0.687085,-0.525284,0.006868,-0.963301,-0.268335,-0.027116,-1.358430,0.297647,-0.947236,-35.680019,1.302672,,,,,,,5
1508447003.592754,0.140388,1.305705,-1.069450,-0.814545,3.635195,-0.761111,0.036661,-0.965069,-0.259420,0.805594,-0.474858,0.488027,-0.252230,-35.581688,3.088317,,,,,,,5
1508447003.612778,0.134805,1.261092,-1.025629,-2.640009,0.904373,0.907246,0.040961,-0.952424,-0.302012,0.705041,-0.161025,0.597422,-0.191066,-35.645981,2.232841,,,,,,,5
1508447003.632788,0.050756,1.230384,-0.929426,-0.812386,-0.021988,1.484881,0.016939,-0.942617,-0.333446,0.583327,0.315038,0.899944,-0.934275,-35.700649,0.498811,,,,,,,5
1508447003.652803,-0.039484,1.250510,-0.858778,2.015368,-1.710486,0.872358,-0.012428,-0.949145,-0.314593,0.306251,1.289401,0.867465,-2.124635,-35.649986,0.471522,,,,,,,5
1508447003.672793,-0.078974,1.311647,-0.833220,3.549840,0.199700,-0.380577,-0.020217,-0.966608,-0.255459,0.050353,1.288966,0.891766,-2.274511,-35.633728,0.849648,,,,,,,5
1508447003.692824,0.024928,1.389546,-0.930275,3.918012,-0.021852,-1.403054,0.004493,-0.983619,-0.180203,-0.223350,0.384040,0.562390,-2.064708,-35.383278,4.406653,,,,,,,5
1508447003.712839,0.140823,1.458259,-1.083816,3.161330,-2.545849,-0.274062,0.015762,-0.993674,-0.111188,-0.563125,-0.893655,-0.236880,-0.903272,-34.860294,7.720228,,,,,,,5
1508447003.732849,0.108329,1.513093,-1.086232,2.456504,-1.022615,0.486823,0.006235,-0.998336,-0.057333,-0.436228,-0.848222,0.071142,-0.623337,-34.479176,9.298159,,,,,,,5
1508447003.752861,-0.103601,1.549411,-0.880768,1.386300,-0.127131,0.307243,-0.002211,-0.999771,-0.021269,-0.164247,-0.104416,0.183257,-0.767473,-34.004021,10.899335,,,,,,,5
1508447003.772875,-1.546642,1.566001,0.564123,1.029815,0.264255,0.077806,-0.004793,-0.999988,-0.000116,-0.029997,0.245747,0.007318,-0.946984,-33.642082,11.957078,,,,,,,5
1508447003.792886,-2.838109,1.542813,1.861946,1.576848,0.201844,0.236662,-0.008362,-0.999609,0.026701,0.042511,0.361196,-0.169721,-1.064600,-33.431549,12.524230,,,,,,,5
1508447003.812898,-2.970873,1.504945,1.992043,2.027848,-0.283555,0.026004,-0.011180,-0.997833,0.064847,0.093241,0.334213,-0.169568,-1.240113,-32.994507,13.619201,,,,,,,5
1508447003.832912,-3.096544,1.469277,2.114322,1.598539,-0.082324,-0.517213,-0.004564,-0.994851,0.101243,0.072664,0.087838,-0.031388,-1.058794,-32.297623,15.211853,,,,,,,5
1508447003.852924,3.071217,1.446574,2.231960,0.873652,0.101249,-0.687028,0.008713,-0.992294,0.123596,0.052506,-0.159256,-0.083695,-0.660752,-31.900173,16.049927,,,,,,,5
1508447003.872933,3.018226,1.430841,2.284099,0.779239,-0.200794,-0.191865,0.017166,-0.990222,0.138439,-0.007095,-0.120847,-0.088054,-0.660752,-31.900173,16.049927,,,,,,,5
1508447003.892925,3.047057,1.410940,2.246160,1.163916,-0.528469,0.337046,0.015025,-0.987250,0.158466,-0.051814,0.039328,-0.040470,-0.243396,-31.516495,16.802063,,,,,,,5
1508447003.912959,3.090528,1.386030,2.191847,1.305489,-0.463729,0.340393,0.009377,-0.982979,0.183477,0.125602,0.230324,-0.024710,-0.277784,-30.906082,17.899578,,,,,,,5
1508447003.932970,3.108254,1.359108,2.165081,1.403842,-0.446531,0.109104,0.007003,-0.977677,0.209994,0.196869,0.223359,-0.084781,-0.294583,-30.667583,18.304930,,,,,,,5
1508447003.952969,3.094955,1.328237,2.164819,1.633399,-0.853330,-0.138459,0.011198,-0.970726,0.239927,0.221056,0.007058,-0.157270,-0.063682,-29.847744,19.615456,,,,,,,5
1508447003.972997,3.067741,1.294148,2.169223,1.690055,-1.303788,-0.138332,0.020153,-0.961976,0.272388,0.185749,-0.104766,-0.175464,0.446496,-29.169765,20.605419,,,,,,,5
1508447003.992987,3.043311,1.261671,2.163871,1.606908,-1.567805,-0.007190,0.029852,-0.952600,0.302758,0.048533,-0.200644,-0.236534,0.928303,-28.647274,21.310326,,,,,,,5
1508447004.013020,3.024389,1.228741,2.147722,1.703692,-1.778833,0.114830,0.039223,-0.942067,0.333122,-0.182671,-0.195582,-0.372170,1.797666,-27.755350,22.406849,,,,,,,5
1508447004.033031,3.007023,1.195731,2.129202,1.622719,-1.635414,0.103623,0.049149,-0.930484,0.363021,-0.255127,-0.201429,-0.408477,2.357356,-27.177021,23.054506,,,,,,,5
1508447004.053042,2.994051,1.168946,2.117173,1.134918,-0.889851,-0.025479,0.057498,-0.920339,0.386873,-0.287722,-0.333812,-0.348070,3.032956,-26.445442,23.813816,,,,,,,5
1508447004.073036,2.981730,1.156290,2.121566,0.304502,-0.202943,-0.271382,0.064109,-0.915315,0.397602,-0.084830,-0.432249,-0.575291,3.509192,-25.885344,24.357597,,,,,,,5
1508447004.093068,2.961811,1.154299,2.136334,-0.008281,-0.605505,-0.300887,0.072341,-0.914512,0.398039,-0.074172,-0.458123,-0.760801,3.690603,-25.807554,24.413265,,,,,,,5
1508447004.113079,2.924135,1.153951,2.148016,-0.113352,-1.601597,-0.209875,0.087351,-0.914371,0.395343,-0.437205,-0.708447,-1.183887,4.227592,-25.784634,24.350321,,,,,,,5
1508447004.133093,2.881706,1.167223,2.172426,-1.293336,-0.459619,-0.396564,0.100914,-0.919664,0.379519,-0.304009,-0.717299,-0.807422,4.873623,-25.820749,24.190796,,,,,,,5
1508447004.153085,2.835061,1.205297,2.226256,-2.447863,0.321707,-0.424668,0.107851,-0.933946,0.340755,-0.014696,-0.428359,-0.408931,5.420240,-26.536957,23.282373,,,,,,,5
1508447004.173115,2.775717,1.250319,2.293083,-2.433185,0.066390,-0.221374,0.112704,-0.949085,0.294169,0.096769,-0.154736,-0.058131,5.512725,-27.600294,21.988443,,,,,,,5
1508447004.193129,2.720654,1.292290,2.347926,-2.130352,-0.292302,0.235500,0.112337,-0.961467,0.250921,0.054381,-0.279774,0.243631,5.589436,-28.832859,20.324427,,,,,,,5
1508447004.213140,2.674234,1.332323,2.381022,-1.973031,-1.003973,0.588691,0.106424,-0.971700,0.210887,0.003760,-0.743251,0.420994,5.574190,-29.473461,19.388182,,,,,,,5
1508447004.233151,2.599500,1.379646,2.431656,-2.648119,-1.259303,0.684076,0.098021,-0.981786,0.162750,-0.076292,-0.949366,0.303207,5.610536,-30.308147,18.044277,,,,,,,5
1508447004.253164,2.416766,1.437234,2.607464,-3.350133,0.155187,0.453663,0.088290,-0.991094,0.099690,-0.113711,-0.550883,0.188610,5.513867,-31.603462,15.699568,,,,,,,5
1508447004.273176,1.964243,1.482465,3.073757,-3.292499,0.532694,0.267029,0.081476,-0.996101,0.033820,0.029608,-0.261406,0.138726,5.241841,-32.389748,14.109760,,,,,,,5
1508447004.293189,1.231770,1.492357,-2.471514,-2.844315,-0.064890,0.480031,0.073898,-0.996925,-0.026060,0.232223,-0.203453,0.308988,4.932889,-33.264469,12.033274,,,,,,,5
1508447004.313183,0.648759,1.469897,-1.887915,-2.680800,-0.002510,0.723125,0.060860,-0.994914,-0.080263,0.187294,0.046367,0.389498,4.483595,-34.088219,9.672056,,,,,,,5
1508447004.333212,0.339244,1.430303,-1.574331,-2.529631,0.102526,0.707417,0.046599,-0.990147,-0.132051,0.120195,0.132969,0.415208,3.968744,-34.614910,7.855882,,,,,,,5
1508447004.353216,0.190379,1.388952,-1.422354,-2.179097,0.067916,0.584644,0.034221,-0.983512,-0.177577,-0.010250,0.299979,0.426158,3.605022,-34.918156,6.586660,,,,,,,5
1508447004.373211,0.114872,1.349359,-1.339557,-2.052467,0.458547,0.515712,0.025174,-0.975583,-0.218185,-0.051084,0.422574,0.555099,3.097782,-35.267345,4.719756,,,,,,,5
1508447004.393249,0.067595,1.309595,-1.275369,-2.045410,0.910375,0.613003,0.017443,-0.966081,-0.257651,-0.034548,0.339494,0.631324,2.651478,-35.464043,3.305943,,,,,,,5
1508447004.413260,0.042914,1.270389,-1.227266,-1.948399,1.105360,0.489376,0.012695,-0.955216,-0.295637,-0.038391,0.304002,0.667051,2.406451,-35.539772,2.606101,,,,,,,5
1508447004.433273,0.034633,1.232281,-1.191739,-1.942218,1.398681,0.523721,0.011499,-0.943249,-0.331888,-0.092904,0.444439,0.662699,1.811122,-35.665428,0.595773,,,,,,,5
1508447004.453284,0.049249,1.199673,-1.164158,-1.363942,2.246094,0.213971,0.017854,-0.931921,-0.362223,-0.122468,0.590856,0.541712,1.463647,-35.680889,-0.624416,,,,,,,5
1508447004.473284,0.087531,1.179432,-1.161356,-0.863918,1.866702,-0.053698,0.033346,-0.924390,-0.379989,-0.118353,0.576505,0.549438,1.431403,-35.672272,-1.048004,,,,,,,5
1508447004.493310,0.104607,1.166051,-1.152158,-0.551948,0.824374,0.245152,0.041117,-0.919203,-0.391632,0.034597,0.454710,0.618179,1.493843,-35.635986,-1.871570,,,,,,,5
1508447004.513314,0.087193,1.164658,-1.129982,0.217961,-0.261907,0.499836,0.034403,-0.918653,-0.393564,0.275381,0.363767,0.471048,1.250281,-35.634014,-2.076524,,,,,,,5
1508447004.533332,0.035561,1.181019,-1.100246,1.113752,-1.739283,0.728645,0.013510,-0.924994,-0.379742,0.342768,0.343191,0.391049,0.942352,-35.656017,-1.848893,,,,,,,5
1508447004.553346,-0.055883,1.213485,-1.050198,1.884545,-2.485595,0.989982,-0.019535,-0.936841,-0.349211,0.429890,0.299161,0.189161,0.170933,-35.709297,-0.689103,,,,,,,5
1508447004.573357,-0.179427,1.251513,-0.977548,1.998758,-2.824772,0.923589,-0.056018,-0.949461,-0.308847,0.417789,0.077390,-0.385443,-0.370948,-35.712471,0.373679,,,,,,,5
1508447004.593367,-0.291360,1.271020,-0.913230,0.520069,-2.024280,0.555299,-0.084828,-0.955403,-0.282860,0.000005,-0.506542,-1.373497,-0.946129,-35.662880,1.709305,,,,,,,5
1508447004.613382,-0.311962,1.264969,-0.903396,-0.436326,0.370954,0.014714,-0.092410,-0.953598,-0.286550,-0.667020,-0.679504,-1.153986,-1.262079,-35.642414,1.919243,,,,,,,5
1508447004.633392,-0.256803,1.261094,-0.925585,-0.157753,2.349796,-0.327532,-0.077410,-0.952424,-0.294780,-0.829374,-0.250014,-0.549550,-1.217133,-35.655338,1.695145,,,,,,,5
1508447004.653378,-0.193030,1.260783,-0.931927,-0.083249,2.967478,0.120743,-0.058523,-0.952330,-0.299405,-0.524531,0.100965,-0.231723,-1.099901,-35.665543,1.554795,,,,,,,5
1508447004.673411,-0.156945,1.255664,-0.910166,-0.092153,2.748572,0.403726,-0.048444,-0.950755,-0.306133,-0.095889,0.103359,0.127239,-1.416520,-35.663521,1.328396,,,,,,,5
1508447004.693429,-0.123429,1.269901,-0.907050,1.353953,0.995279,-0.415099,-0.036488,-0.955071,-0.294121,0.030675,-0.012153,0.772652,-1.590273,-35.648956,1.510274,,,,,,,5
1508447004.713415,-0.079305,1.321019,-0.956028,3.031616,-0.182872,-1.079319,-0.019583,-0.968967,-0.246411,0.043432,-0.175915,0.993497,-1.406109,-35.628513,2.071222,,,,,,,5
1508447004.733442,-0.020938,1.365394,-1.006943,0.772413,0.707298,-0.225268,-0.004270,-0.978979,-0.203916,0.780424,-1.012476,0.022459,-0.434955,-35.373352,4.918822,,,,,,,5
1508447004.753466,0.030804,1.341740,-1.003226,-1.816978,3.266192,0.218456,0.006993,-0.973881,-0.226951,0.828990,-0.566921,0.384392,-0.583026,-35.424667,4.517821,,,,,,,5
1508447004.773474,0.013772,1.313318,-0.937209,-0.899712,1.663222,0.989302,0.003507,-0.967035,-0.254618,0.506030,0.144281,0.617564,-1.010375,-35.526604,3.535197,,,,,,,5
1508447004.793469,-0.056192,1.321357,-0.857625,1.181941,-0.410691,0.931450,-0.013864,-0.969051,-0.246471,0.151453,0.950954,0.738093,-1.973684,-35.518982,3.188174,,,,,,,5
1508447004.813502,-0.126966,1.361785,-0.805023,2.484093,-1.024738,-0.091068,-0.026274,-0.978237,-0.205822,0.055250,1.074993,0.783764,-2.352108,-35.407948,4.050061,,,,,,,5
1508447004.833502,-0.052840,1.422636,-0.883420,3.171235,0.394112,-1.322621,-0.007797,-0.989044,-0.147413,-0.128892,0.634705,0.928510,-2.231428,-35.235786,5.396126,,,,,,,5
1508447004.853527,0.216089,1.495062,-1.136709,3.160743,0.872482,-0.929455,0.016223,-0.997134,-0.073902,-0.288348,-0.328657,-0.050121,-1.131545,-34.544495,9.003072,,,,,,,5
1508447004.873537,0.822140,1.545836,-1.752576,2.768914,-1.319884,0.307145,0.018284,-0.999689,-0.016987,-0.303669,-0.646491,-0.287807,-0.851697,-33.960938,11.026667,,,,,,,5
1508447004.893549,2.967814,1.528078,2.352595,3.079387,-1.408328,0.580086,0.007384,-0.999088,0.042062,-0.172896,-0.506467,-0.068368,-0.814401,-33.635601,11.985042,,,,,,,5
1508447004.913564,-3.128936,1.476363,2.141448,2.283009,-0.967586,0.423717,-0.001193,-0.995544,0.094286,0.030719,0.095139,0.210508,-0.798393,-32.461399,14.875418,,,,,,,5
1508447004.933572,-3.091354,1.437696,2.100219,1.763052,0.200806,0.295733,-0.006664,-0.991155,0.132540,0.038967,0.235571,0.145323,-0.824433,-31.966591,15.909598,,,,,,,5
1508447004.953586,-3.039101,1.402732,2.059038,1.740126,0.726219,0.469495,-0.017114,-0.985910,0.166396,0.027429,0.513941,0.056062,-1.133622,-31.380922,17.017948,,,,,,,5
1508447004.973590,-3.026238,1.365527,2.057779,1.932818,0.386560,-0.026407,-0.023461,-0.979006,0.202477,0.022911,0.478869,0.012718,-1.712226,-30.579184,18.374977,,,,,,,5
1508447004.993610,-3.081662,1.323435,2.114249,2.295066,-0.246624,-0.588210,-0.014665,-0.969562,0.244407,0.053850,0.056918,-0.046104,-1.580299,-29.806393,19.614782,,,,,,,5
1508447005.013622,-3.133234,1.275511,2.155457,2.430090,-0.786484,-0.320253,-0.002432,-0.956719,0.291003,0.046835,-0.276176,-0.172076,-1.211981,-29.104599,20.666674,,,,,,,5
1508447005.033635,3.133749,1.228282,2.151977,2.300364,-1.054194,0.266212,0.002634,-0.941913,0.335846,-0.024744,-0.281155,-0.206696,-0.830239,-28.338102,21.723732,,,,,,,5
1508447005.053647,3.132167,1.186630,2.129408,1.917951,-1.149169,0.389689,0.003533,-0.927111,0.374770,0.022255,0.103686,-0.177123,-0.314289,-26.808645,23.597792,,,,,,,5
1508447005.073642,3.128221,1.153197,2.110029,1.613577,-1.150354,0.308384,0.005423,-0.914065,0.405531,0.120218,0.100894,-0.200606,-0.074072,-26.161772,24.314898,,,,,,,5
1508447005.093670,3.104769,1.116399,2.104382,2.028635,-1.531191,-0.081368,0.016159,-0.898526,0.438623,0.278641,-0.008884,-0.320978,0.588726,-25.097183,25.405567,,,,,,,5
1508447005.113682,3.072517,1.072124,2.106812,2.225660,-1.432689,-0.136099,0.033010,-0.878218,0.477119,0.257990,-0.095384,-0.459404,1.459338,-23.974503,26.433907,,,,,,,5
1508447005.133681,3.054739,1.032362,2.095035,1.860874,-1.525664,0.257969,0.044482,-0.858513,0.510860,0.155790,-0.490288,-0.685634,1.848595,-23.390224,26.928387,,,,,,,5
1508447005.153708,3.026430,1.003685,2.081275,1.124683,-2.195103,0.098063,0.061728,-0.843456,0.533640,-0.019904,-0.657337,-0.670877,3.083777,-21.949591,28.006495,,,,,,,5
1508447005.173719,2.993550,0.995719,2.077851,-0.016994,-1.458501,0.041282,0.080227,-0.839150,0.537951,-0.214351,-0.617637,-0.642092,4.168478,-21.564274,28.164940,,,,,,,5
1508447005.193731,2.970240,1.006510,2.084603,-0.825178,-0.581384,-0.186192,0.091194,-0.844971,0.526980,-0.334953,-0.614105,-0.709246,4.539420,-21.605042,28.076214,,,,,,,5
1508447005.213744,2.949110,1.028102,2.100009,-1.322516,-0.402625,-0.179515,0.098794,-0.856321,0.506907,-0.626672,-1.020022,-1.342875,5.138911,-22.301353,27.420780,,,,,,,5
1508447005.233756,2.921647,1.063594,2.120113,-2.218076,-0.528226,-0.081593,0.105976,-0.874107,0.474032,-0.462543,-1.134499,-1.301592,4.100646,-23.225666,23.111866,,,,,,,5
1508447005.253766,2.895852,1.124337,2.156916,-3.735790,1.054768,-0.277124,0.105040,-0.901982,0.418803,0.066393,-0.776516,-0.876948,4.212061,-23.767061,22.534210,,,,,,,5
1508447005.273780,2.832197,1.195883,2.252397,-3.753386,0.806316,-1.124960,0.111499,-0.930539,0.348804,0.534985,-0.228457,0.251980,3.957984,-26.060131,19.889925,,,,,,,5
1508447005.293771,2.717261,1.243390,2.364733,-2.410408,-1.233755,-0.731045,0.132402,-0.946880,0.293068,0.342238,-0.673634,0.664513,4.310298,-26.977177,18.548817,,,,,,,5
1508447005.313803,2.613847,1.278326,2.431673,-1.923140,-2.136375,0.356205,0.145193,-0.957534,0.249092,0.006876,-0.956421,0.830834,5.142291,-27.753801,17.137346,,,,,,,5
1508447005.333816,2.575347,1.332108,2.445675,-2.876040,-0.485675,1.682647,0.126836,-0.971649,0.199527,-0.755819,-0.669174,-0.068424,5.343788,-28.709402,15.414909,,,,,,,5
1508447005.353828,2.475073,1.418328,2.559058,-4.775557,1.049943,1.248620,0.093899,-0.988399,0.119373,-0.717648,-0.269093,-0.220798,4.299351,-29.927809,13.275812,,,,,,,5
1508447005.373838,1.955018,1.488469,3.109394,-4.184838,1.189082,0.723358,0.076239,-0.996613,0.030824,-0.359640,-0.247558,-0.004274,3.612355,-30.866158,11.164068,,,,,,,5
1508447005.393822,0.998249,1.501325,-2.205137,-3.117705,0.025914,0.909100,0.058346,-0.997588,-0.037608,0.259434,-0.315507,0.672984,3.084686,-31.544456,9.264836,,,,,,,5
1508447005.413864,0.448428,1.462005,-1.662162,-3.050339,-0.507460,0.288506,0.047073,-0.994088,-0.097842,0.448120,0.055840,0.576129,2.347451,-32.342087,6.235722,,,,,,,5
1508447005.433874,0.244695,1.403859,-1.455551,-3.408186,0.255986,0.735447,0.040255,-0.986098,-0.161213,0.498884,0.198730,0.541050,2.347451,-32.342087,6.235722,,,,,,,5
1508447005.453869,0.111506,1.350354,-1.319217,-2.436950,-0.174715,0.751657,0.024332,-0.975801,-0.217304,-0.012613,0.600068,0.571033,1.665328,-32.907452,2.175253,,,,,,,5
1508447005.473900,0.039233,1.308535,-1.248658,-2.106788,-0.057270,0.666097,0.010169,-0.965806,-0.259066,-0.177543,0.646943,0.712557,1.206337,-32.991825,0.699556,,,,,,,5
1508447005.493902,0.003773,1.269441,-1.205892,-1.868267,0.427569,0.517239,0.001120,-0.954935,-0.296813,-0.245627,0.561518,0.751235,0.902765,-33.007427,-0.316303,,,,,,,5
1508447005.513925,-0.010085,1.237229,-1.177425,-1.439106,0.808203,0.369876,-0.003302,-0.944880,-0.327399,-0.113138,0.487346,0.756995,0.509836,-32.970421,-1.759717,,,,,,,5
1508447005.533936,0.005426,1.212892,-1.169262,-1.107635,1.385750,0.013165,0.001901,-0.936633,-0.350307,-0.076867,0.462924,0.789394,0.456438,-32.957802,-1.995054,,,,,,,5
1508447005.553947,0.044242,1.193448,-1.174520,-0.914834,1.841832,-0.163776,0.016296,-0.929645,-0.368096,-0.017150,0.466098,0.865776,0.492419,-32.870628,-3.112008,,,,,,,5
1508447005.573962,0.090731,1.177169,-1.183336,-0.697479,1.884936,-0.259906,0.034751,-0.923524,-0.381963,-0.003532,0.536485,0.893361,0.807597,-32.792305,-3.797086,,,,,,,5
1508447005.593973,0.134333,1.167971,-1.194665,-0.258637,1.399371,-0.216190,0.052503,-0.919957,-0.388488,0.003070,0.624455,0.833846,1.056906,-32.753349,-4.062813,,,,,,,5
1508447005.613983,0.160461,1.172155,-1.205858,0.520067,0.393190,-0.142379,0.062019,-0.921589,-0.383180,0.101556,0.609410,0.416200,1.307071,-32.736584,-4.124685,,,,,,,5
1508447005.633998,0.163056,1.192480,-1.215332,1.410474,-0.751885,0.025946,0.059959,-0.929288,-0.364457,0.250908,0.198102,-0.162352,1.386002,-32.802429,-3.533422,,,,,,,5
1508447005.654000,0.142989,1.233456,-1.218708,2.194679,-1.278726,0.469630,0.047165,-0.943638,-0.327601,0.277237,-0.996746,-1.842946,1.300567,-32.884365,-2.707832,,,,,,,5
1508447005.674019,0.098472,1.253319,-1.181581,-0.040958,0.005943,1.130390,0.030690,-0.950026,-0.310659,-0.277776,-0.819475,-2.052271,1.045277,-32.961056,-1.697536,,,,,,,5
1508447005.694034,0.004452,1.248432,-1.088406,-0.182484,-0.524788,1.233165,0.001410,-0.948489,-0.316807,-0.371665,0.188876,-0.425777,-0.102660,-32.983009,-1.586138,,,,,,,5
1508447005.714044,-0.038248,1.250756,-1.054166,0.256849,-0.274818,0.177560,-0.012030,-0.949223,-0.314375,0.118887,-0.256374,-0.349322,-0.650081,-32.977474,-1.571253,,,,,,,5
1508447005.734056,-0.016914,1.246643,-1.064436,-0.645019,1.146753,-0.213182,-0.005387,-0.947921,-0.318461,0.076005,-0.401246,-0.298986,-0.650081,-32.977474,-1.571253,,,,,,,5
1508447005.754071,0.027141,1.239171,-1.071347,0.129344,2.122134,-0.050600,0.008835,-0.945514,-0.325461,0.128158,-0.467892,0.366446,-0.518580,-32.968273,-1.797011,,,,,,,5
1508447005.774080,0.053778,1.262802,-1.070329,1.674675,0.789719,0.111278,0.016295,-0.952944,-0.302709,-0.028700,-0.293364,0.898092,-0.403088,-32.987156,-1.445882,,,,,,,5
1508447005.794073,0.064496,1.299440,-1.066447,1.661656,0.987607,0.193305,0.017275,-0.963408,-0.267481,0.004285,-0.263536,0.919886,-0.434678,-33.007042,-0.866915,,,,,,,5
1508447005.814099,0.080949,1.311220,-1.051023,-0.168066,1.744111,0.255435,0.020755,-0.966499,-0.255831,0.442716,0.131645,0.547930,-0.638364,-33.012440,0.420270,,,,,,,5
1508447005.834114,0.100251,1.300884,-1.030875,-0.452188,1.841567,0.132848,0.026687,-0.963794,-0.265308,0.440644,0.348240,0.548206,-0.811736,-33.011200,0.084000,,,,,,,5
1508447005.854101,0.127749,1.307213,-1.046483,0.936108,-0.118017,-0.448107,0.033193,-0.965463,-0.258419,0.204691,0.519097,0.655926,-0.832193,-33.010788,-0.022861,,,,,,,5
1508447005.874142,0.253423,1.340500,-1.185513,2.461163,-0.320090,-1.800674,0.057231,-0.973599,-0.220975,-0.205104,0.205197,0.857984,-1.082363,-31.598564,3.981595,,,,,,,5
1508447005.894154,0.417032,1.385090,-1.359840,2.797442,-0.036532,-0.560451,0.074788,-0.982806,-0.168816,-0.378377,-0.322766,0.721184,-0.235578,-31.365191,5.627007,,,,,,,5
1508447005.914166,0.596346,1.423817,-1.531303,1.936097,0.682339,-0.177321,0.082250,-0.989218,-0.121172,-0.472555,-0.405283,0.116244,-0.047345,-31.112930,6.890379,,,,,,,5
1508447005.934155,0.713618,1.443043,-1.638596,0.902871,0.475720,0.122770,0.083396,-0.991851,-0.096318,-0.210426,-0.339036,-0.009562,-0.076959,-30.807011,8.149612,,,,,,,5
1508447005.954175,0.816333,1.462679,-1.731675,1.398632,0.470973,0.358973,0.078625,-0.994161,-0.073905,-0.080120,-0.231745,-0.061135,-0.231186,-30.692965,8.566354,,,,,,,5
1508447005.974200,1.154488,1.495884,-2.066974,2.609920,0.130454,0.681749,0.068450,-0.997195,-0.030265,0.094575,0.078036,-0.048623,-0.537878,-30.405933,9.522808,,,,,,,5
1508447005.994215,2.142700,1.516787,-3.059093,3.148757,-0.230808,1.350324,0.045393,-0.998542,0.029218,0.134218,0.367805,0.020114,-1.213740,-29.660433,11.587909,,,,,,,5
1508447006.014228,2.887121,1.475926,2.468289,3.037031,-0.625691,0.813537,0.023846,-0.995503,0.091677,0.140628,0.613255,0.074995,-1.728331,-29.043800,12.998631,,,,,,,5
1508447006.034237,2.991360,1.424719,2.352114,2.373241,-0.379295,-0.216040,0.021785,-0.989350,0.143919,0.094456,0.538514,0.190157,-1.949865,-28.400917,14.320613,,,,,,,5
1508447006.054251,2.929902,1.380776,2.413245,1.950967,0.065796,-1.197689,0.039686,-0.982000,0.184663,0.138979,-0.013376,0.179214,-1.761285,-27.661568,15.723534,,,,,,,5
1508447006.074261,2.868092,1.337044,2.478447,1.992212,0.083313,-1.042947,0.062564,-0.972804,0.223020,0.160458,-0.462621,-0.102277,-0.864028,-26.723034,17.338593,,,,,,,5
1508447006.094273,2.876036,1.292238,2.467060,2.369843,-0.454234,-0.077708,0.072165,-0.961453,0.265331,0.071466,-0.333774,-0.242794,-0.547383,-26.183912,18.154810,,,,,,,5
1508447006.114288,2.905826,1.241530,2.407009,2.873428,-1.904114,0.359768,0.075531,-0.946280,0.314404,-0.055358,0.031470,-0.273297,-0.373368,-25.523520,19.076281,,,,,,,5
1508447006.134298,2.915861,1.185443,2.348420,2.918405,-2.114784,0.272671,0.084131,-0.926666,0.366350,-0.000955,0.001312,0.041014,0.544828,-23.795715,21.188700,,,,,,,5
1508447006.154295,2.925195,1.136699,2.316502,2.210878,-0.172277,0.023409,0.090306,-0.907250,0.410782,-0.042561,0.008736,-0.037583,0.909131,-23.181652,21.846704,,,,,,,5
1508447006.174298,2.960591,1.100947,2.295087,1.735196,1.085065,0.123713,0.081502,-0.891637,0.445356,0.006190,-0.145915,-0.800855,0.861716,-21.726925,23.295752,,,,,,,5
1508447006.194334,2.984816,1.066309,2.280471,1.757189,0.071206,0.014524,0.075469,-0.875422,0.477431,0.089982,-0.378438,-1.071684,0.442173,-20.894772,24.056328,,,,,,,5
1508447006.214345,2.979647,1.038924,2.268162,1.080419,-1.279189,0.166563,0.081772,-0.861859,0.500512,0.118408,-0.675082,-1.299401,0.537157,-20.292183,24.564865,,,,,,,5
1508447006.234356,2.952352,1.030486,2.253890,0.158564,-2.313870,0.339178,0.096766,-0.857549,0.505219,-0.164546,-0.614329,-0.754379,1.402548,-19.782673,24.943390,,,,,,,5
1508447006.254370,2.916398,1.035559,2.241773,-0.362230,-2.112750,0.357391,0.113891,-0.860147,0.497167,-0.274933,-0.671728,-0.548650,2.442464,-19.823051,24.830927,,,,,,,5
1508447006.274382,2.895571,1.051203,2.239222,-1.091052,-0.446315,0.168464,0.120928,-0.868021,0.481576,-0.244463,-0.906011,-1.215493,3.005734,-20.015120,24.614113,,,,,,,5
1508447006.294395,2.881924,1.093265,2.259147,-2.798867,0.193395,-0.036803,0.118004,-0.888132,0.444180,-0.252098,-0.828146,-1.449521,3.036649,-20.959677,23.811020,,,,,,,5
1508447006.314409,2.816275,1.150734,2.312203,-3.001831,-1.491545,-0.394313,0.130343,-0.913063,0.386427,-0.206530,-0.587928,-0.992812,3.163785,-22.005016,22.831200,,,,,,,5
1508447006.334399,2.706848,1.202462,2.398454,-3.155772,-1.338473,-0.693596,0.151650,-0.932928,0.326568,0.318122,-0.246256,0.080628,4.002496,-23.298632,21.369316,,,,,,,5
1508447006.354432,2.558544,1.253336,2.531422,-3.269919,-1.103435,-0.635799,0.171864,-0.950031,0.260583,0.269344,-0.525188,0.613669,5.069606,-24.858799,19.282974,,,,,,,5
1508447006.374418,2.398800,1.295975,2.665667,-2.610431,-2.009858,-0.001777,0.183544,-0.962474,0.199890,0.155720,-1.074483,0.776596,5.591287,-26.355364,18.586123,,,,,,,5
1508447006.394454,2.255650,1.341298,2.765742,-2.473097,-2.239115,1.291783,0.176193,-0.973781,0.143900,0.048462,-1.054097,0.793676,5.941581,-26.828440,17.783253,,,,,,,5
1508447006.414468,2.088148,1.407591,2.909250,-3.464590,-0.625021,2.169622,0.141218,-0.986712,0.080360,-0.378187,-0.722349,0.105126,5.742678,-28.396929,15.229832,,,,,,,5
1508447006.434479,1.575616,1.464382,-2.855392,-4.207965,0.247032,1.415630,0.106212,-0.994343,0.000512,0.046742,-0.424266,0.116386,4.648095,-29.687243,12.975924,,,,,,,5
1508447006.454490,0.856988,1.456862,-2.128072,-3.512913,0.043350,0.995315,0.085934,-0.993517,-0.074434,0.244495,-0.305647,0.302354,4.223331,-30.260201,11.738632,,,,,,,5
1508447006.474506,0.429646,1.419775,-1.695401,-2.952236,0.189336,1.207679,0.062669,-0.988618,-0.136774,0.243850,0.002931,0.615504,3.185616,-31.430414,8.561112,,,,,,,5
1508447006.494515,0.203452,1.372173,-1.467470,-2.800745,-0.174292,1.141576,0.039869,-0.980339,-0.193250,0.165270,0.123818,0.700513,2.623970,-31.825758,7.179668,,,,,,,5
1508447006.514502,0.072731,1.324371,-1.337351,-2.405571,-0.176928,1.055397,0.017726,-0.969791,-0.243294,-0.016704,0.354144,0.682793,2.094369,-32.138474,5.834704,,,,,,,5
1508447006.534527,-0.006026,1.281270,-1.254999,-2.113884,0.128670,0.998410,-0.001720,-0.958379,-0.285493,-0.182026,0.525503,0.764497,1.088868,-32.520767,3.539178,,,,,,,5
1508447006.554552,-0.059168,1.238964,-1.191154,-2.039712,0.582515,1.074962,-0.019264,-0.945447,-0.325206,-0.215034,0.542798,0.799999,0.405036,-32.656082,2.174397,,,,,,,5
1508447006.574552,-0.093428,1.199983,-1.136983,-1.706579,0.944497,1.047108,-0.033807,-0.932033,-0.360793,-0.189033,0.542720,0.794723,0.039572,-32.695744,1.516104,,,,,,,5
1508447006.594555,-0.109275,1.171061,-1.095470,-1.186831,1.315365,0.854701,-0.042442,-0.921164,-0.386853,-0.117790,0.561484,0.921903,-0.970593,-32.716377,-0.091411,,,,,,,5
1508447006.614588,-0.096164,1.149584,-1.067058,-0.919560,2.360535,0.544663,-0.039258,-0.912594,-0.406978,-0.066653,0.550701,0.964198,-1.349858,-32.696342,-0.662276,,,,,,,5
1508447006.634588,-0.048469,1.133978,-1.056778,-0.641261,3.069577,0.113081,-0.020497,-0.906102,-0.422562,0.000707,0.560201,0.949174,-1.617933,-32.664227,-1.319957,,,,,,,5
1508447006.654613,0.013504,1.126985,-1.057489,-0.146891,2.910532,-0.028829,0.005798,-0.903122,-0.429345,0.137787,0.613602,0.792291,-1.545421,-32.640774,-1.871684,,,,,,,5
1508447006.674624,0.057048,1.133568,-1.058931,0.667271,1.482366,-0.017864,0.024143,-0.905929,-0.422741,0.241513,0.533996,0.508419,-1.493969,-31.691387,-1.200294,,,,,,,5
1508447006.694616,0.061417,1.157363,-1.059723,1.491039,-0.488163,0.134380,0.024659,-0.915747,-0.400998,0.268111,0.449514,0.353605,-1.475749,-31.700073,-0.971583,,,,,,,5
1508447006.714649,0.030840,1.197063,-1.051429,2.222659,-1.475806,0.337715,0.011258,-0.930971,-0.364920,0.315387,-0.246428,-0.581689,-1.618437,-31.702923,0.567385,,,,,,,5
1508447006.734645,-0.047623,1.231208,-1.012030,0.992281,-2.170159,0.876442,-0.015857,-0.942892,-0.332721,0.261569,-1.229502,-2.285488,-1.913208,-31.633673,1.914914,,,,,,,5
1508447006.754671,-0.157640,1.224572,-0.938707,-0.450279,-1.926703,1.317235,-0.053274,-0.940661,-0.335141,0.118429,-1.139555,-2.265430,-2.174409,-31.600704,2.164245,,,,,,,5
1508447006.774686,-0.222279,1.218227,-0.895208,0.033884,-0.590233,0.496000,-0.076125,-0.938489,-0.336815,-0.113741,0.162808,-0.136910,-3.119389,-31.531639,2.010390,,,,,,,5
1508447006.794687,-0.227090,1.221799,-0.881678,0.279784,0.897651,0.103070,-0.076989,-0.939716,-0.333176,-0.041358,0.210575,0.009675,-3.275784,-31.511158,2.081525,,,,,,,5
1508447006.814707,-0.213170,1.226285,-0.863474,0.243709,1.938530,0.342062,-0.071451,-0.941241,-0.330092,-0.023718,0.080965,0.039747,-3.412739,-31.489029,2.193355,,,,,,,5
1508447006.834698,-0.187056,1.230911,-0.841919,0.550375,2.326755,0.220312,-0.061997,-0.942793,-0.327564,-0.065963,-0.025438,0.159351,-3.789702,-31.446175,2.189233,,,,,,,5
1508447006.854732,-0.165840,1.269280,-0.833798,2.814891,0.812575,-0.449965,-0.049024,-0.954887,-0.292894,-0.232913,-0.307808,0.728975,-3.855999,-31.381012,2.894791,,,,,,,5
1508447006.874743,-0.149994,1.329346,-0.844693,2.321547,0.002752,-0.617556,-0.035731,-0.970992,-0.236426,-0.663106,-0.861848,-0.015145,-3.474107,-30.709997,3.180709,,,,,,,5
1508447006.894759,-0.067191,1.324705,-0.891894,-1.704132,4.208324,-0.676354,-0.016356,-0.969872,-0.243066,0.659652,-0.484977,0.485955,-3.116320,-30.649803,4.020987,,,,,,,5
1508447006.914769,0.135805,1.292696,-1.012059,-1.847887,2.143226,-0.070119,0.037168,-0.961579,-0.272002,0.709078,0.703293,0.825377,-2.460353,-30.851406,2.725396,,,,,,,5
1508447006.934757,0.113725,1.267832,-1.002091,-0.517634,-1.445342,0.127672,0.033857,-0.954456,-0.296424,0.684420,0.762745,1.066352,-2.364421,-30.899244,2.221823,,,,,,,5
1508447006.954785,0.073361,1.290036,-0.986319,2.055617,-1.364501,0.242672,0.020309,-0.960845,-0.276341,0.172364,0.621902,0.855061,-2.464632,-30.895947,2.157858,,,,,,,5
1508447006.974804,0.074561,1.346664,-1.026161,2.950685,-2.009469,-0.570281,0.016557,-0.974987,-0.221643,-0.032945,0.102444,0.469400,-2.409203,-30.790123,3.384437,,,,,,,5
1508447006.994816,0.106942,1.396488,-1.094170,2.313071,-1.473525,-0.212061,0.018511,-0.984847,-0.172436,-0.140002,-0.483766,-0.003376,-2.042258,-30.629505,4.790917,,,,,,,5
1508447007.014830,0.117942,1.438384,-1.136190,2.022399,-1.690938,-0.151805,0.015535,-0.991246,-0.131109,-0.300905,-0.365947,0.222540,-1.563139,-30.235525,6.975669,,,,,,,5
1508447007.034842,0.224333,1.477074,-1.271993,2.041913,-0.975288,-0.555705,0.020819,-0.995611,-0.091240,-0.305685,-0.288446,0.400582,-1.252134,-30.015802,7.923007,,,,,,,5
1508447007.054852,0.476455,1.508867,-1.519915,1.656976,0.897067,-0.160317,0.028385,-0.998083,-0.054997,-0.237400,0.017248,0.345692,-0.831765,-29.688101,9.122235,,,,,,,5
1508447007.074867,0.876812,1.537609,-1.890778,1.741879,1.705208,0.375496,0.025506,-0.999449,-0.021223,-0.028360,0.189314,0.273359,-1.103420,-29.286272,10.314409,,,,,,,5
1508447007.094857,2.570008,1.542721,2.731129,2.481741,1.471613,0.520908,0.015186,-0.999606,0.023609,0.075040,0.272128,0.193081,-1.576713,-28.968058,11.120069,,,,,,,5
1508447007.114889,3.012930,1.498188,2.309081,2.210263,0.779737,0.091182,0.009308,-0.997365,0.071945,0.056274,0.644292,-0.043701,-2.158423,-28.369463,12.482187,,,,,,,5
1508447007.134903,3.012280,1.457066,2.322510,1.984711,0.615005,-0.569881,0.014634,-0.993540,0.112538,0.095000,0.189539,0.015788,-2.337682,-27.666826,13.941745,,,,,,,5
1508447007.154916,2.973006,1.415463,2.372978,2.047688,0.424690,-0.605707,0.025958,-0.987960,0.152516,0.136227,-0.297547,-0.032429,-2.159891,-27.119051,15.006076,,,,,,,5
1508447007.174924,2.973622,1.371596,2.372291,2.249590,-0.301586,-0.169109,0.033083,-0.980225,0.195101,0.136885,-0.431106,-0.103029,-2.060280,-26.815197,15.556049,,,,,,,5
1508447007.194939,3.004194,1.325194,2.326647,2.410905,-0.869460,0.293892,0.033302,-0.969991,0.240849,0.206932,-0.151682,-0.248539,-1.792061,-25.699112,17.367624,,,,,,,5
1508447007.214944,3.028992,1.277337,2.283991,2.437639,-0.705206,0.181374,0.032503,-0.957249,0.287434,0.136687,0.045704,-0.457173,-1.631128,-24.811401,18.628580,,,,,,,5
1508447007.234961,3.033071,1.230269,2.265284,2.353913,-0.796148,-0.015298,0.036174,-0.942579,0.332020,0.077672,0.024595,-0.611027,-1.631128,-24.811401,18.628580,,,,,,,5
1508447007.254976,3.026182,1.180277,2.240210,2.745913,-1.994874,0.228728,0.043836,-0.924711,0.378137,0.048434,0.174498,-0.800317,-1.236759,-23.414297,20.384588,,,,,,,5
1508447007.274986,2.998480,1.126070,2.216742,2.532444,-2.497973,0.043478,0.061359,-0.902728,0.425813,0.201749,-0.407452,-0.705140,0.181673,-20.304972,20.614594,,,,,,,5
1508447007.294994,2.963839,1.091320,2.212593,1.194171,-1.493531,-0.308592,0.081569,-0.887237,0.454046,0.166676,-0.570054,-0.758550,0.181673,-20.304972,20.614594,,,,,,,5
1508447007.315014,2.926427,1.083193,2.232857,-0.162099,-0.797057,-0.632296,0.100031,-0.883458,0.457706,-0.248209,-0.617595,-0.855244,1.803809,-19.144186,21.622505,,,,,,,5
1508447007.335022,2.879523,1.093284,2.263308,-0.873484,-1.144509,-0.456359,0.119066,-0.888141,0.443880,-0.400392,-0.598859,-0.869646,2.430380,-19.324377,21.399721,,,,,,,5
1508447007.355033,2.844494,1.116208,2.283389,-1.488003,-0.599425,0.088388,0.128543,-0.898442,0.419856,-0.580676,-0.787120,-1.132762,2.864835,-19.629700,21.065466,,,,,,,5
1508447007.375047,2.811945,1.158075,2.303957,-2.480438,-0.906487,0.227964,0.129841,-0.916033,0.379507,-0.406590,-0.845945,-1.009054,3.121997,-20.547453,20.133099,,,,,,,5
1508447007.394985,2.744343,1.213035,2.359023,-3.246624,-0.498357,-0.135806,0.135478,-0.936683,0.322909,0.306310,-0.313042,-0.323397,3.441463,-21.625910,18.914616,,,,,,,5
1508447007.414996,2.629947,1.271553,2.480960,-3.458938,0.142553,-0.682223,0.144337,-0.955560,0.257046,0.545971,-0.213080,0.059193,3.548157,-22.237923,18.170628,,,,,,,5
1508447007.435009,2.455580,1.316617,2.651646,-2.980505,-1.049167,-0.548212,0.159284,-0.967870,0.194568,0.609591,-0.767238,0.510327,4.029165,-23.886467,15.826839,,,,,,,5
1508447007.455023,2.238136,1.352785,2.824431,-2.500472,-3.242729,0.174924,0.169888,-0.976330,0.133861,0.425204,-0.903080,0.566823,4.547969,-24.519632,14.676171,,,,,,,5
1508447007.475032,2.026481,1.391153,2.967733,-2.136000,-3.472800,1.270186,0.160446,-0.983908,0.078632,0.011124,-0.685053,0.302959,6.007277,-23.180414,14.026512,,,,,,,5
1508447007.495046,1.734137,1.438543,-3.071467,-2.809553,-1.845305,1.775870,0.130113,-0.991267,0.021444,-0.437241,-0.566686,0.203654,6.174236,-24.156361,12.186511,,,,,,,5
1508447007.515041,1.126710,1.460559,-2.476999,-3.627238,-0.406935,1.341116,0.099343,-0.993930,-0.047266,-0.346581,-0.396527,0.192102,5.790976,-24.837877,10.941045,,,,,,,5
1508447007.535068,0.570093,1.427931,-1.919322,-3.474683,-0.025551,1.062636,0.076844,-0.989812,-0.119863,-0.017624,-0.224788,0.413457,5.350033,-25.504387,9.542818,,,,,,,5
1508447007.555081,0.307535,1.382652,-1.654887,-2.785632,-0.334002,1.059572,0.056618,-0.982353,-0.178261,0.133522,-0.045494,0.515801,4.550841,-26.480644,6.944595,,,,,,,5
1508447007.575080,0.151261,1.335856,-1.502836,-2.516120,-0.246320,0.959648,0.035077,-0.972528,-0.230127,0.150180,0.127893,0.652658,4.164854,-26.812456,5.823073,,,,,,,5
1508447007.595104,0.061322,1.291543,-1.410518,-2.198932,0.072106,0.929500,0.016892,-0.961261,-0.275120,0.081985,0.312580,0.622700,3.669415,-27.142811,4.468251,,,,,,,5
1508447007.615104,0.006172,1.252056,-1.347328,-1.903852,0.424001,0.745871,0.001934,-0.949631,-0.313364,-0.019558,0.531662,0.679972,3.285209,-27.324081,3.572661,,,,,,,5
1508447007.635130,-0.014759,1.217633,-1.307298,-1.589988,1.046213,0.703149,-0.005105,-0.938283,-0.345830,-0.129081,0.466192,0.764394,2.625233,-27.548546,2.085144,,,,,,,5
1508447007.655114,-0.030485,1.188950,-1.263193,-1.313605,1.369595,0.868581,-0.011358,-0.927978,-0.372461,-0.116557,0.528671,0.788782,2.402110,-27.596220,1.685398,,,,,,,5
1508447007.675139,-0.036062,1.167866,-1.226351,-0.841518,1.453440,0.613808,-0.014137,-0.919916,-0.391860,-0.073036,0.638910,0.872222,1.679267,-27.691021,0.741196,,,,,,,5
1508447007.695166,-0.023563,1.156903,-1.203835,-0.330250,1.811501,0.403221,-0.009476,-0.915562,-0.402065,-0.064224,0.605213,0.920513,1.375048,-27.714493,0.421978,,,,,,,5
1508447007.715172,0.007605,1.155890,-1.192162,0.065109,2.247859,0.085261,0.003066,-0.915154,-0.403093,0.012056,0.594506,0.950548,1.216899,-27.722538,0.376997,,,,,,,5
1508447007.735191,0.060830,1.158052,-1.202418,0.178701,2.152949,-0.304634,0.024385,-0.916023,-0.400383,0.103209,0.499626,0.910469,1.222967,-27.720463,0.492209,,,,,,,5
1508447007.755203,0.110786,1.165092,-1.211581,0.525360,2.028435,-0.012256,0.043634,-0.918825,-0.392247,0.155035,0.464250,0.556416,1.322155,-27.711422,0.700764,,,,,,,5
1508447007.775213,0.134223,1.184226,-1.200506,1.196559,1.303482,0.569827,0.050452,-0.926207,-0.373623,0.124291,0.520797,0.223904,1.292941,-27.707352,0.890512,,,,,,,5
1508447007.795227,0.114202,1.221489,-1.174809,2.063885,-0.518296,0.735321,0.039000,-0.939610,-0.340018,0.291810,-0.558986,-1.506464,0.805382,-27.664186,2.050896,,,,,,,5
1508447007.815212,0.039075,1.241198,-1.127746,0.146710,-2.043196,0.922773,0.012644,-0.946172,-0.323416,0.213446,-1.462717,-3.119043,0.511324,-27.610826,2.746421,,,,,,,5
1508447007.835249,-0.070313,1.255401,-1.078782,1.025327,-3.142481,0.513944,-0.021793,-0.950674,-0.309426,0.076907,-0.390528,-0.733894,0.151472,-27.594395,2.947620,,,,,,,5
1508447007.855263,-0.128526,1.262097,-1.051977,-0.008560,-0.949316,0.503874,-0.038941,-0.952729,-0.301314,-0.095504,0.507020,-0.092943,0.037823,-27.540165,3.420514,,,,,,,5
1508447007.875270,-0.150383,1.255555,-1.034751,-0.237151,0.267422,-0.032659,-0.046450,-0.950722,-0.306547,-0.041349,0.262886,0.320188,-0.134522,-27.549707,3.340285,,,,,,,5
1508447007.895269,-0.088808,1.258548,-1.072645,0.270320,1.837593,-0.853525,-0.027246,-0.951645,-0.305988,0.256128,-0.292633,0.289967,-0.136359,-27.561104,3.244833,,,,,,,5
1508447007.915300,0.007421,1.274602,-1.126166,1.168258,2.306555,-0.582766,0.002166,-0.956454,-0.291874,0.448670,-0.915311,0.128315,0.341544,-27.518717,3.572900,,,,,,,5
1508447007.935312,0.034985,1.296889,-1.138555,0.740498,-0.215333,-0.015372,0.009461,-0.962721,-0.270330,-0.163453,-0.726076,0.443959,0.390000,-27.443243,4.108327,,,,,,,5
1508447007.955321,-0.001384,1.298165,-1.097461,-0.198985,1.098720,1.041547,-0.000373,-0.963066,-0.269266,-0.105340,-0.104180,0.608408,0.349722,-27.394226,4.426738,,,,,,,5
1508447007.975313,-0.039759,1.293220,-1.018307,-0.063438,1.511897,0.738461,-0.010892,-0.961723,-0.273809,0.242093,0.315330,0.421758,-0.541563,-27.416449,4.266984,,,,,,,5
1508447007.995339,-0.055412,1.308124,-0.998095,1.291030,-0.441788,0.016685,-0.014381,-0.965700,-0.259263,0.328453,0.362642,0.672807,-0.807948,-27.395733,4.356957,,,,,,,5
1508447008.015343,-0.050159,1.345512,-1.022138,2.054760,-0.970262,-0.616257,-0.011200,-0.974731,-0.223102,0.273498,0.447951,0.844227,-0.717132,-27.263317,5.134136,,,,,,,5
1508447008.035369,0.026373,1.389339,-1.106695,2.261411,0.274319,-1.023537,0.004759,-0.983582,-0.180400,-0.016203,0.259522,0.896389,-0.128310,-26.964581,6.561782,,,,,,,5
1508447008.055383,0.213026,1.434039,-1.271644,2.387380,1.522716,-0.959798,0.028823,-0.990663,-0.133250,-0.100768,0.168184,0.704859,0.219449,-26.719576,7.495209,,,,,,,5
1508447008.075371,0.495654,1.476420,-1.530385,2.580571,0.819115,-0.419974,0.044819,-0.995550,-0.082896,-0.253926,-0.013956,0.049555,0.458099,-26.320951,8.784058,,,,,,,5
1508447008.095397,1.030883,1.516591,-2.080857,2.879111,-1.728911,0.073540,0.046472,-0.998531,-0.027852,-0.032740,-0.551716,-0.346126,0.619657,-25.670841,10.525492,,,,,,,5
1508447008.115420,2.171752,1.523583,3.009096,2.734939,-2.605641,0.571052,0.038927,-0.998886,0.026686,0.123213,-0.210694,0.020723,1.019431,-25.028584,11.945409,,,,,,,5
1508447008.135430,2.801916,1.493503,2.341643,2.166446,-1.234338,0.740950,0.025727,-0.997014,0.072805,0.067092,-0.051203,0.117747,1.167016,-24.708963,12.580431,,,,,,,5
1508447008.155444,2.992101,1.455211,2.145715,2.124006,0.208711,0.242325,0.017176,-0.993327,0.114042,-0.040568,0.353038,0.211519,1.095147,-23.858467,14.132809,,,,,,,5
1508447008.175441,3.023309,1.410026,2.120699,2.267541,0.318351,-0.280261,0.018891,-0.987104,0.158960,-0.135025,0.649992,0.016028,1.007998,-23.379362,14.918155,,,,,,,5
1508447008.195466,3.015630,1.366618,2.134375,2.076241,0.230720,-0.457589,0.025473,-0.979228,0.201156,-0.134756,0.253962,-0.112609,1.043702,-22.683805,15.953609,,,,,,,5
1508447008.215481,2.989202,1.324511,2.159169,2.040570,-0.391163,-0.582929,0.037010,-0.969825,0.240978,-0.058357,-0.219567,-0.130291,1.290680,-21.815069,17.105522,,,,,,,5
1508447008.235469,2.968626,1.283694,2.161142,1.983828,-1.240589,-0.162401,0.048736,-0.959068,0.278949,-0.074569,-0.367103,-0.102390,1.741410,-21.091385,17.952240,,,,,,,5
1508447008.255503,2.961608,1.247445,2.133695,1.766272,-1.820295,0.201637,0.056881,-0.948176,0.312613,-0.089047,-0.331350,-0.121405,2.006382,-20.732876,18.338055,,,,,,,5
1508447008.275518,2.962042,1.214886,2.096819,1.719035,-1.574466,0.338810,0.062228,-0.937330,0.342842,-0.037966,0.161939,-0.145454,2.595736,-20.067997,18.992096,,,,,,,5
1508447008.295527,2.963565,1.181745,2.072170,1.672307,-0.643949,0.003734,0.067172,-0.925269,0.373316,0.177885,0.126884,0.021978,3.283373,-19.090828,19.872639,,,,,,,5
1508447008.315539,2.972997,1.149565,2.065724,1.583688,0.556884,-0.199456,0.068610,-0.912586,0.403087,0.229211,0.030033,-0.171519,3.283373,-19.090828,19.872639,,,,,,,5
1508447008.335532,2.983205,1.116869,2.062121,1.658504,-0.052892,-0.187587,0.069163,-0.898732,0.433010,0.145040,-0.192790,-0.919048,5.305150,-17.897911,20.871685,,,,,,,5
1508447008.355564,2.964258,1.084382,2.057286,1.561282,-1.797976,-0.108789,0.082463,-0.884015,0.460128,0.105723,-0.256137,-0.941558,5.676206,-17.183170,21.368820,,,,,,,5
1508447008.375573,2.921887,1.057115,2.053329,1.189218,-2.391161,-0.280538,0.107094,-0.870941,0.479575,0.013176,-0.461319,-0.695212,6.365595,-16.692617,21.562532,,,,,,,5
1508447008.395591,2.882006,1.040420,2.054823,0.548633,-1.577606,-0.128693,0.129844,-0.862617,0.488909,-0.216926,-0.522713,-0.534243,7.652786,-16.089674,21.602417,,,,,,,5
1508447008.415601,2.860893,1.036161,2.053664,0.029552,-0.873675,-0.016389,0.141153,-0.860455,0.489585,-0.313578,-0.656559,-0.734489,8.223484,-15.932920,21.508686,,,,,,,5
1508447008.435611,2.845821,1.044248,2.059288,-0.788475,-0.329268,0.000695,0.146483,-0.864547,0.480730,-0.375044,-0.818330,-0.946642,8.397836,-15.940037,21.435921,,,,,,,5
1508447008.455625,2.821932,1.075918,2.076358,-2.170565,-0.651067,0.120007,0.149242,-0.880026,0.450866,-0.681194,-1.070260,-1.226989,8.647837,-16.577217,20.845093,,,,,,,5
1508447008.475637,2.773162,1.131460,2.116402,-3.382280,-0.316060,0.043179,0.153187,-0.905034,0.396796,-0.170307,-0.526576,-0.825385,8.908527,-17.660160,19.820797,,,,,,,5
1508447008.495648,2.712353,1.204780,2.202203,-4.180180,1.457491,-0.232511,0.148950,-0.933761,0.325430,0.278098,-0.244096,-0.466452,8.916427,-18.355396,19.175085,,,,,,,5
1508447008.515662,2.616026,1.264554,2.321882,-3.010033,0.148341,-0.461280,0.151252,-0.953473,0.260790,0.462380,-0.432238,0.386350,8.466489,-20.434353,17.171574,,,,,,,5
1508447008.535671,2.475841,1.295380,2.433908,-1.780054,-2.713891,-0.363853,0.167969,-0.962312,0.213874,0.359253,-0.999282,0.611229,8.755761,-21.033873,16.279434,,,,,,,5
1508447008.555657,2.360874,1.330776,2.486080,-1.944674,-3.159288,1.351884,0.167307,-0.971333,0.168880,0.167852,-0.900600,0.567128,9.678606,-21.571024,15.004086,,,,,,,5
1508447008.575698,2.259306,1.397957,2.551979,-3.338045,-0.876505,2.306767,0.132802,-0.985100,0.109274,-0.266942,-0.717414,0.229197,9.700447,-22.766262,13.103653,,,,,,,5
1508447008.595699,1.878292,1.475416,2.937929,-4.234261,0.405380,1.767966,0.090769,-0.995455,0.028825,-0.265604,-0.534453,0.042525,9.492391,-23.092245,12.678718,,,,,,,5
1508447008.615721,0.974817,1.485042,-2.435623,-3.644402,-0.159518,0.718311,0.070884,-0.996325,-0.048077,0.178887,-0.433301,0.414425,8.130882,-24.940859,9.795379,,,,,,,5
1508447008.635734,0.458965,1.442229,-1.920578,-3.233427,-0.048267,0.696234,0.056801,-0.991747,-0.114945,0.291664,-0.076948,0.686615,7.699366,-25.848452,7.528908,,,,,,,5
1508447008.655745,0.314747,1.405370,-1.774644,-2.722018,-0.194515,0.570445,0.050979,-0.986348,-0.156583,0.073289,0.327871,0.598187,7.524051,-26.208487,6.372677,,,,,,,5
1508447008.675757,0.210740,1.360943,-1.678175,-2.237622,-0.600055,0.114167,0.043576,-0.978062,-0.203707,0.020724,0.325352,0.672869,7.524051,-26.208487,6.372677,,,,,,,5
1508447008.695756,0.152535,1.318558,-1.627013,-2.180681,-0.255122,0.333170,0.037921,-0.968356,-0.246675,-0.069827,0.426944,0.776322,7.320394,-26.766441,3.751870,,,,,,,5
1508447008.715782,0.093674,1.279099,-1.563798,-1.951738,0.337968,0.759277,0.026899,-0.957757,-0.286317,-0.062178,0.441415,0.808671,7.057812,-26.972210,2.606597,,,,,,,5
1508447008.735772,0.039302,1.246396,-1.492881,-1.501033,0.797692,1.055085,0.012524,-0.947842,-0.318495,-0.110134,0.663861,0.808714,6.695549,-27.123249,1.898963,,,,,,,5
1508447008.755797,-0.003217,1.227058,-1.427645,-0.662023,1.074263,0.982364,-0.001084,-0.941501,-0.337007,-0.034637,0.675068,0.871324,5.943765,-27.339333,1.157444,,,,,,,5
1508447008.775818,-0.012659,1.219868,-1.386347,-0.260120,1.763949,0.502809,-0.004352,-0.939054,-0.343742,-0.008603,0.624082,0.929389,5.559774,-27.424200,1.053235,,,,,,,5
1508447008.795830,0.021195,1.214316,-1.375444,-0.263842,2.391150,0.016664,0.007396,-0.937131,-0.348900,0.085362,0.587262,1.008903,5.278596,-27.477766,1.102693,,,,,,,5
1508447008.815837,0.083465,1.212303,-1.388651,0.031701,2.536233,-0.372612,0.029251,-0.936427,-0.349642,0.075486,0.608820,0.938326,5.265082,-27.472076,1.292692,,,,,,,5
1508447008.835854,0.155239,1.213909,-1.413599,0.204346,2.238675,-0.376736,0.054017,-0.936989,-0.345158,0.059875,0.674645,0.792134,5.385615,-27.436733,1.525753,,,,,,,5
1508447008.855856,0.194918,1.225826,-1.421226,0.974892,0.992998,0.168508,0.065499,-0.941085,-0.331765,0.012657,0.766616,0.255349,5.475959,-27.402447,1.796344,,,,,,,5
1508447008.875879,0.182414,1.263332,-1.429426,2.196481,-2.459551,0.361246,0.054901,-0.953104,-0.297622,0.347199,-0.730154,-1.766984,5.353120,-27.333607,2.885330,,,,,,,5
1508447008.895870,0.089631,1.284446,-1.405340,0.175081,-2.896826,0.778646,0.025283,-0.959281,-0.281319,0.653322,-1.989541,-3.730827,5.346600,-27.279341,3.370243,,,,,,,5
1508447008.915902,-0.082523,1.290249,-1.270181,0.556813,-1.842152,1.986820,-0.022823,-0.960904,-0.275939,-0.194050,-0.072818,-0.579392,5.142917,-27.333637,3.244952,,,,,,,5
1508447008.935915,-0.187733,1.301112,-1.191686,0.515290,-1.415515,0.646287,-0.049724,-0.963855,-0.261746,0.035915,0.487811,-0.063541,4.022640,-27.495674,3.451569,,,,,,,5
1508447008.955927,-0.212508,1.310753,-1.175745,0.618483,0.257159,-0.390787,-0.054230,-0.966379,-0.251339,0.104798,-0.055136,0.017666,3.883598,-27.490095,3.649573,,,,,,,5
1508447008.975937,-0.134456,1.332894,-1.242003,1.193652,0.708539,-1.246011,-0.031591,-0.971834,-0.233538,0.210027,-0.333189,0.318560,4.017107,-27.443640,3.849240,,,,,,,5
1508447008.995934,-0.024345,1.365871,-1.335827,1.718741,1.281017,-0.897331,-0.004954,-0.979076,-0.203434,0.144892,-0.559208,0.648960,4.873627,-27.119572,4.988364,,,,,,,5
1508447009.015963,0.022545,1.391356,-1.353378,0.737107,1.441675,0.238223,0.004023,-0.983944,-0.178434,-0.029353,-0.382603,0.470761,4.960736,-26.908688,5.951533,,,,,,,5
1508447009.035975,0.002866,1.385859,-1.293175,-0.776900,2.353987,0.550097,0.000527,-0.982948,-0.183884,0.082481,-0.046120,0.443299,4.960736,-26.908688,5.951533,,,,,,,5
1508447009.055968,0.010818,1.369694,-1.261282,-0.616023,1.411288,0.153563,0.002161,-0.979847,-0.199738,-0.049707,0.367939,0.636094,4.017192,-27.077518,5.897224,,,,,,,5
1508447009.075999,0.031256,1.372098,-1.276737,0.674201,-0.314533,-0.428025,0.006169,-0.980324,-0.197297,-0.198475,0.475732,0.950501,3.938285,-27.100481,5.844729,,,,,,,5
1508447009.096001,0.132938,1.403767,-1.391934,2.187385,-0.492927,-1.087523,0.022036,-0.986083,-0.164787,-0.182696,0.294585,1.016105,4.112319,-27.025784,6.066542,,,,,,,5
1508447009.116003,0.367233,1.451700,-1.628141,2.868194,0.207348,-0.928051,0.042659,-0.992916,-0.110893,-0.109935,0.160275,0.435188,5.005761,-26.412350,7.838192,,,,,,,5
1508447009.136035,0.770806,1.491711,-2.037458,2.632555,-0.626027,-0.501534,0.055043,-0.996874,-0.056673,-0.155751,-0.029737,-0.102354,5.304004,-25.995148,8.956944,,,,,,,5
1508447009.156029,1.390079,1.509620,-2.680501,2.118959,-1.155614,-0.128190,0.060143,-0.998129,-0.010989,-0.065697,-0.327188,-0.395109,5.587554,-25.581331,9.923804,,,,,,,5
1508447009.176059,1.943450,1.510944,3.030868,1.510872,-0.677482,0.410172,0.055711,-0.998209,0.021779,0.122069,-0.055074,0.027248,5.954800,-24.932194,11.270902,,,,,,,5
1508447009.196071,2.406534,1.501373,2.558108,1.584151,-0.336476,0.420618,0.046520,-0.997591,0.051456,0.096058,0.063662,0.053433,5.877870,-24.717207,11.773592,,,,,,,5
1508447009.216082,2.679709,1.471194,2.281892,2.070403,0.071464,-0.111691,0.044313,-0.995044,0.089018,-0.054261,0.315250,0.032519,5.773396,-24.356440,12.551447,,,,,,,5
1508447009.236097,2.739906,1.428148,2.227830,2.021534,0.411932,-0.880583,0.055583,-0.989843,0.130849,-0.091822,0.293737,-0.000417,5.902373,-23.625971,13.823261,,,,,,,5
1508447009.256099,2.728110,1.387534,2.247751,1.710600,0.406846,-0.862923,0.073223,-0.983254,0.166880,-0.153927,0.337564,0.069433,5.977330,-23.458765,14.073556,,,,,,,5
1508447009.276118,2.763965,1.352017,2.222755,1.795830,0.381119,-0.289384,0.080025,-0.976163,0.201746,-0.129113,0.101896,-0.027155,6.340900,-22.522955,15.382347,,,,,,,5
1508447009.296134,2.800889,1.311519,2.178948,2.234746,-0.610818,-0.142771,0.085670,-0.966575,0.241645,-0.044380,-0.114189,-0.018425,6.458770,-21.713610,16.459360,,,,,,,5
1508447009.316143,2.836538,1.267313,2.123145,2.348441,-1.027492,0.109132,0.089757,-0.954301,0.285049,0.025798,-0.277541,-0.100936,6.666307,-21.128826,17.124256,,,,,,,5
1508447009.336154,2.857688,1.225970,2.077097,2.054638,-1.134659,0.101302,0.094685,-0.941134,0.324501,0.046840,-0.139051,-0.182137,6.902385,-20.527256,17.750944,,,,,,,5
1508447009.356169,2.870949,1.190777,2.039789,1.832032,-1.044186,0.117634,0.099171,-0.928657,0.357436,0.021556,0.130394,-0.070510,7.434462,-19.450390,18.722134,,,,,,,5
1508447009.376180,2.870717,1.154604,2.020776,1.849624,-0.712068,-0.295091,0.108176,-0.914635,0.389539,0.073953,0.040230,-0.175520,7.813408,-18.748394,19.275774,,,,,,,5
1508447009.396177,2.869256,1.116308,2.016663,1.869838,-0.079530,-0.466934,0.118084,-0.898486,0.422823,0.071293,-0.087735,-0.426592,7.813408,-18.748394,19.275774,,,,,,,5
1508447009.416197,2.866717,1.079139,2.011861,1.721811,-0.621705,-0.296077,0.128138,-0.881551,0.454365,-0.082300,-0.516428,-0.806538,8.355642,-17.134640,20.510838,,,,,,,5
1508447009.436216,2.851771,1.051174,2.005500,1.136329,-1.162900,-0.215075,0.141905,-0.868007,0.475843,-0.132857,-0.617345,-0.795255,8.812181,-16.455515,20.872677,,,,,,,5
1508447009.456228,2.832419,1.037627,1.999399,0.448179,-1.322141,0.015497,0.154651,-0.861200,0.484166,-0.158252,-0.601843,-0.758474,9.084889,-16.221157,20.939102,,,,,,,5
1508447009.476245,2.806142,1.035158,2.000127,-0.079773,-1.141771,-0.129270,0.168018,-0.859943,0.481942,-0.039005,-0.430401,-0.604607,9.906757,-15.968546,20.759789,,,,,,,5
1508447009.496252,2.781819,1.040006,2.013977,-0.498350,-0.310313,-0.291808,0.178219,-0.862407,0.473805,-0.006528,-0.468327,-0.755834,10.242670,-15.999924,20.571758,,,,,,,5
1508447009.516259,2.751492,1.053790,2.038225,-1.159244,-0.853961,-0.315775,0.187965,-0.869303,0.457145,-0.438988,-0.939474,-1.545555,10.471812,-16.169289,20.322460,,,,,,,5
1508447009.536254,2.684147,1.084986,2.078700,-2.253610,-1.743112,-0.172158,0.206221,-0.884297,0.418917,-0.616316,-0.785976,-1.073992,11.183977,-16.799967,19.410999,,,,,,,5
1508447009.556270,2.603971,1.137896,2.150690,-3.508789,-0.105218,-0.121655,0.214826,-0.907753,0.360325,-0.169187,-0.265373,-0.395680,11.684317,-17.807102,18.179413,,,,,,,5
1508447009.576300,2.516310,1.195346,2.249506,-3.200257,-0.001949,-0.011491,0.214634,-0.930343,0.297312,-0.020512,-0.131059,-0.007197,11.697666,-18.430767,17.537918,,,,,,,5
1508447009.596314,2.423152,1.233809,2.333734,-1.981731,-1.231392,0.079623,0.217635,-0.943755,0.248921,0.041551,-0.840623,0.549770,11.787744,-19.926716,15.750627,,,,,,,5
1508447009.616298,2.328401,1.261577,2.393565,-1.694896,-1.967834,0.659590,0.221080,-0.952572,0.209120,0.008412,-1.007206,0.720918,12.131260,-20.352219,14.924036,,,,,,,5
1508447009.636315,2.251124,1.321996,2.449916,-3.192290,-0.499628,2.272075,0.191420,-0.969209,0.154897,-0.108015,-0.875075,0.331812,12.332774,-20.859428,14.031897,,,,,,,5
1508447009.656349,2.060649,1.409722,2.658307,-4.642633,1.197371,2.486048,0.141519,-0.987056,0.075458,-0.295617,-0.522451,0.015241,10.972780,-22.944962,11.714690,,,,,,,5
1508447009.676357,1.474898,1.469760,-3.016615,-3.870761,0.341705,1.552668,0.100401,-0.994900,-0.009658,-0.078535,-0.566501,0.151656,9.657763,-24.402161,9.765720,,,,,,,5
1508447009.696373,0.899159,1.463279,-2.446487,-2.493893,-0.627214,0.526240,0.084003,-0.994226,-0.066776,0.044232,-0.570472,0.308185,5.739917,-25.198288,9.818363,,,,,,,5
1508447009.716386,0.519979,1.429121,-2.066839,-3.091571,0.209038,1.099030,0.070158,-0.989981,-0.122539,0.109042,0.055929,0.721004,5.369035,-26.005856,7.692174,,,,,,,5
1508447009.736397,0.204792,1.389968,-1.744136,-2.282484,-0.076624,1.858267,0.036574,-0.983695,-0.176086,-0.053053,0.464255,0.630447,4.527491,-26.563705,6.178350,,,,,,,5
1508447009.756402,0.037604,1.358626,-1.579408,-1.616428,-0.210818,0.951177,0.007917,-0.977576,-0.210433,-0.034177,0.192283,0.710707,4.527491,-26.563705,6.178350,,,,,,,5
1508447009.776405,0.027232,1.321417,-1.560584,-2.108198,0.740046,-0.011498,0.006720,-0.969066,-0.246711,-0.034293,0.120555,0.823142,3.486291,-27.021173,4.690696,,,,,,,5
1508447009.796434,0.015524,1.275615,-1.520779,-2.288945,1.667186,0.792658,0.004516,-0.956749,-0.290878,-0.041366,0.508156,0.889526,3.217649,-27.287962,3.051985,,,,,,,5
1508447009.816416,-0.019661,1.236666,-1.442364,-1.699400,2.046402,1.478183,-0.006447,-0.944696,-0.327885,-0.036796,0.726877,0.898517,2.930894,-27.376547,2.497040,,,,,,,5
1508447009.836455,-0.052963,1.213475,-1.360134,-0.762188,2.305449,1.269972,-0.018516,-0.936837,-0.349276,-0.018822,0.904351,0.939562,1.659838,-27.562231,1.367142,,,,,,,5
1508447009.856472,-0.049080,1.203427,-1.311348,-0.331122,2.576151,0.673219,-0.017621,-0.933275,-0.358729,-0.012485,0.899370,1.015879,1.027219,-27.604191,1.119848,,,,,,,5
1508447009.876481,-0.005118,1.201286,-1.298779,0.102375,2.878089,-0.104496,-0.001848,-0.932504,-0.361154,0.085345,0.737482,0.953408,0.768096,-27.615440,1.047947,,,,,,,5
1508447009.896495,0.074797,1.209406,-1.331597,0.592614,2.072471,-0.743100,0.026422,-0.935406,-0.352587,0.172110,0.646283,0.772142,0.900091,-27.602444,1.263143,,,,,,,5
1508447009.916508,0.126127,1.222130,-1.360503,0.785952,0.793368,-0.122790,0.042976,-0.939829,-0.338931,0.220329,0.643671,0.670291,1.139796,-27.579218,1.545366,,,,,,,5
1508447009.936509,0.130058,1.251159,-1.355630,1.889693,0.083598,0.309552,0.040752,-0.949350,-0.311568,0.496525,0.285501,-0.155839,1.124250,-27.545082,2.074878,,,,,,,5
1508447009.956531,0.111155,1.296295,-1.368051,1.926694,-2.802556,0.069173,0.030069,-0.962560,-0.269394,0.398352,-1.390589,-2.439453,1.033528,-27.402126,3.515099,,,,,,,5
1508447009.976528,0.006223,1.290910,-1.303294,-1.063891,-1.362446,1.926979,0.001719,-0.961087,-0.276241,-0.470896,-0.876682,-2.400791,1.126747,-27.355059,3.838198,,,,,,,5
1508447009.996554,-0.157734,1.284743,-1.165514,0.448235,-1.775396,1.330115,-0.044323,-0.959365,-0.278665,-0.134922,-0.105073,-0.588218,0.463412,-27.428331,3.431108,,,,,,,5
1508447010.016568,-0.234975,1.302081,-1.126850,1.002888,-1.803133,0.166648,-0.061812,-0.964113,-0.258198,0.058165,0.322938,0.016483,-0.253463,-27.376270,3.843982,,,,,,,5
1508447010.036579,-0.284446,1.318972,-1.079680,1.082485,0.868565,0.159743,-0.069924,-0.968459,-0.239159,0.029092,-0.009476,0.199501,-0.385330,-27.295742,4.369748,,,,,,,5
,,,,,,,,,,,,,,,,42.293259,-71.264190,60.790226,-1.000000,-1.000000,1508447010.027005,5
1508447010.056590,-0.253281,1.337465,-1.088340,0.614086,0.777357,-0.474521,-0.057939,-0.972902,-0.223842,0.111208,-0.402678,-0.084049,-0.436208,-27.246723,4.661166,,,,,,,5
1508447010.076601,-0.213985,1.351967,-1.104490,0.870569,2.043566,-0.158412,-0.046100,-0.976152,-0.212136,-0.225995,-0.803313,0.631844,-0.294946,-27.179585,5.048147,,,,,,,5
1508447010.096615,-0.176036,1.371414,-1.077229,0.891712,3.400168,0.149435,-0.034687,-0.980189,-0.195003,-0.265606,-0.225652,0.576351,-0.571459,-27.038427,5.735636,,,,,,,5
1508447010.116601,-0.149056,1.373537,-1.050508,-0.362244,2.269946,0.291553,-0.029104,-0.980607,-0.193809,-0.024698,-0.049544,0.607612,-0.807096,-26.992575,5.920327,,,,,,,5
1508447010.136616,-0.140627,1.360533,-1.034605,-0.472801,0.451691,0.101870,-0.029255,-0.977976,-0.206657,0.419483,0.222345,0.773292,-1.380071,-27.042223,5.578016,,,,,,,5
1508447010.156643,-0.137388,1.365419,-1.042444,0.711269,-0.533943,-0.266021,-0.027930,-0.978984,-0.202015,0.531714,0.290965,0.818608,-1.399771,-27.059599,5.488120,,,,,,,5
1508447010.176639,-0.113398,1.394638,-1.087197,1.714461,-1.243808,-0.786390,-0.019830,-0.984524,-0.174123,0.618280,0.504269,0.763524,-1.245636,-27.005295,5.784735,,,,,,,5
1508447010.196654,-0.094466,1.435289,-1.126931,2.162380,-0.454836,-0.209264,-0.012743,-0.990833,-0.134491,0.183229,0.542057,0.661499,-0.500677,-26.686007,7.204656,,,,,,,5
1508447010.216686,0.032884,1.487982,-1.243572,2.757623,0.786430,-1.201077,0.002720,-0.996573,-0.082675,-0.044025,0.080481,0.257541,-0.294556,-26.302876,8.507206,,,,,,,5
1508447010.236687,0.842837,1.528913,-2.048609,2.697605,-0.098919,-1.332141,0.031258,-0.999123,-0.027859,-0.146752,-0.215889,-0.006672,-0.018882,-26.059778,9.229750,,,,,,,5
1508447010.256708,2.030461,1.518616,3.028383,2.518639,-1.253408,-0.353842,0.046743,-0.998639,0.023139,-0.284231,-0.694644,-0.097450,0.972376,-25.222008,11.278541,,,,,,,5
1508447010.276725,2.573016,1.489457,2.458631,2.165817,-1.127205,0.441899,0.043748,-0.996694,0.068467,-0.289948,-0.115702,0.149429,1.284425,-24.648197,12.454610,,,,,,,5
1508447010.296735,2.799263,1.458159,2.222150,1.815478,-0.077350,0.162968,0.037730,-0.993663,0.105877,-0.240871,0.092250,0.149769,1.299466,-24.387583,12.955997,,,,,,,5
1508447010.316749,2.872453,1.420738,2.150489,2.011968,0.112424,-0.220704,0.039751,-0.988762,0.144114,-0.081805,0.468438,-0.069087,1.262364,-23.625080,14.302539,,,,,,,5
1508447010.336757,2.917820,1.380167,2.106559,2.029922,-0.044360,-0.091841,0.042047,-0.981885,0.184753,-0.060205,0.437207,-0.154479,1.297249,-23.013716,15.263899,,,,,,,5
1508447010.356771,2.928996,1.340058,2.087804,2.016715,-0.475437,-0.331843,0.048255,-0.973498,0.223547,-0.038153,0.312655,-0.093329,1.343368,-22.699747,15.723150,,,,,,,5
1508447010.376781,2.929213,1.298115,2.075927,2.106052,-0.637653,-0.226883,0.056768,-0.963052,0.263264,-0.033880,-0.098288,-0.005864,1.775747,-21.684231,17.057007,,,,,,,5
1508447010.396765,2.932426,1.257146,2.054789,2.013366,-1.004697,-0.091639,0.064065,-0.951214,0.301808,-0.082345,-0.264851,-0.060674,1.855010,-21.501314,17.278688,,,,,,,5
1508447010.416807,2.928932,1.220050,2.033482,1.798233,-1.236894,0.005431,0.072521,-0.939116,0.335859,-0.065196,-0.201676,-0.142606,2.320127,-20.584198,18.308701,,,,,,,5
1508447010.436822,2.931000,1.188684,2.005085,1.566750,-1.183903,0.237804,0.077947,-0.927879,0.364643,-0.034994,0.084526,-0.183872,2.977576,-19.595213,19.273357,,,,,,,5
1508447010.456832,2.932387,1.158519,1.981999,1.603192,-0.837369,0.000929,0.083218,-0.916211,0.391960,0.007282,0.256344,-0.102562,3.330490,-18.997370,19.806776,,,,,,,5
1508447010.476830,2.927017,1.122624,1.975703,1.915614,-0.442583,-0.369919,0.092268,-0.901241,0.423381,0.011400,0.213420,-0.224559,3.330490,-18.997370,19.806776,,,,,,,5
1508447010.496838,2.924971,1.079305,1.964737,2.340332,-0.804466,-0.199522,0.101435,-0.881630,0.460911,0.092214,-0.227623,-0.569432,3.953169,-17.425304,21.095778,,,,,,,5
1508447010.516868,2.902420,1.032281,1.956791,2.197436,-1.751672,-0.412237,0.121496,-0.858471,0.498263,0.192545,-0.550632,-0.549380,4.580802,-16.383919,21.791836,,,,,,,5
1508447010.536869,2.874573,0.998433,1.957019,1.234502,-1.005346,-0.395132,0.142911,-0.840623,0.522426,0.120837,-0.703902,-0.507884,5.030192,-15.901693,22.048447,,,,,,,5
1508447010.556883,2.857335,0.986867,1.963838,0.073448,-0.411583,-0.290339,0.154611,-0.834303,0.529182,-0.281305,-0.783220,-0.763542,5.844944,-15.117374,22.396479,,,,,,,5
1508447010.576905,2.847743,0.994247,1.967887,-0.527899,-0.330011,0.160469,0.157892,-0.838349,0.521767,-0.341852,-0.624511,-1.053674,6.001823,-15.153022,22.330803,,,,,,,5
1508447010.596902,2.830983,1.007272,1.970810,-0.810580,-0.959215,0.030956,0.163263,-0.845378,0.508608,-0.377039,-0.700857,-1.183901,6.145281,-15.407260,22.116793,,,,,,,5
1508447010.616915,2.791551,1.040959,1.992176,-2.512100,-1.011272,0.076497,0.173318,-0.862890,0.474745,-0.482476,-1.080500,-1.653166,6.679980,-16.069990,21.481012,,,,,,,5
1508447010.636944,2.730115,1.106184,2.043938,-3.848336,-0.785619,-0.000377,0.179214,-0.893995,0.410676,-0.220444,-0.713961,-1.148392,6.942349,-17.018188,20.651531,,,,,,,5
1508447010.656937,2.629403,1.168121,2.137414,-3.437519,-0.720754,-0.527179,0.192056,-0.920016,0.341592,0.393485,-0.199003,-0.334039,7.295252,-18.507729,19.197498,,,,,,,5
1508447010.676952,2.517913,1.215937,2.242581,-2.801427,-0.741062,-0.163125,0.202925,-0.937695,0.282044,0.237490,-0.347934,0.538665,7.835240,-19.931469,17.482742,,,,,,,5
1508447010.696956,2.402040,1.253097,2.332227,-2.164514,-2.139480,0.125361,0.210532,-0.949957,0.230778,0.008783,-0.990992,0.747981,8.118864,-20.590900,16.565008,,,,,,,5
1508447010.716989,2.297996,1.299236,2.394663,-2.413100,-1.967470,1.580010,0.200382,-0.963354,0.178317,-0.126804,-0.962031,0.836972,8.658661,-21.348566,15.282898,,,,,,,5
1508447010.737004,2.197858,1.372126,2.481481,-3.614515,-0.045164,2.464867,0.159818,-0.980330,0.115808,-0.506849,-0.881166,0.014670,8.177109,-22.696995,13.501184,,,,,,,5
1508447010.757014,1.836843,1.451248,2.858519,-4.497793,0.898910,1.931242,0.115068,-0.992863,0.031357,-0.492143,-0.473416,-0.022125,6.987064,-24.094372,11.616491,,,,,,,5
1508447010.777026,1.060223,1.474154,-2.624024,-3.723883,0.856366,1.426520,0.084186,-0.995334,-0.047153,-0.258197,-0.414441,0.226871,6.987064,-24.094372,11.616491,,,,,,,5
1508447010.797041,0.490883,1.442931,-2.041284,-3.247276,0.266841,1.214930,0.060112,-0.991836,-0.112460,0.294426,-0.116272,0.719851,5.161182,-25.966154,7.963773,,,,,,,5
1508447010.817049,0.223911,1.392990,-1.762926,-2.890368,0.508186,1.021081,0.039273,-0.984234,-0.172455,0.285998,0.148586,0.593232,0.680309,-28.539433,8.826401,,,,,,,5
1508447010.837052,0.108016,1.345413,-1.634745,-2.328773,0.517555,0.747826,0.024092,-0.974708,-0.222178,0.186021,0.213905,0.656901,0.349450,-28.783337,8.016533,,,,,,,5
1508447010.857054,0.062241,1.303992,-1.574104,-2.039834,0.733117,0.461828,0.016399,-0.964618,-0.263140,-0.006481,0.477665,0.751558,-0.386758,-29.270187,5.997830,,,,,,,5
1508447010.877085,0.034116,1.265092,-1.527352,-1.854975,0.949272,0.632812,0.010266,-0.953635,-0.300790,-0.054959,0.641517,0.772729,-0.778818,-29.482292,4.801607,,,,,,,5
1508447010.897081,0.008158,1.234343,-1.478786,-1.351600,0.977099,0.767952,0.002693,-0.943931,-0.330131,-0.072090,0.704994,0.774329,-1.017329,-29.557926,4.261646,,,,,,,5
1508447010.917112,-0.016413,1.214580,-1.434076,-0.763736,0.840700,0.736500,-0.005724,-0.937223,-0.348684,-0.054610,0.752683,0.850164,-1.797689,-29.666277,3.089946,,,,,,,5
1508447010.937122,-0.027836,1.203412,-1.399791,-0.459036,1.203128,0.528469,-0.009997,-0.933270,-0.359036,-0.044737,0.764783,0.897290,-2.146055,-29.674698,2.770250,,,,,,,5
1508447010.957134,-0.013508,1.195800,-1.385430,-0.289154,1.463998,0.118013,-0.004947,-0.930509,-0.366236,0.005710,0.712522,0.974192,-2.488899,-29.676559,2.444330,,,,,,,5
1508447010.977148,0.016686,1.196245,-1.388067,0.258658,1.311944,-0.142701,0.006104,-0.930672,-0.365804,0.184264,0.592629,1.048666,-2.613019,-29.682707,2.230796,,,,,,,5
1508447010.997138,0.062864,1.209416,-1.409490,0.874671,1.326360,-0.483648,0.022212,-0.935410,-0.352867,0.282567,0.471619,0.813072,-2.556211,-29.676435,2.375373,,,,,,,5
1508447011.017149,0.131004,1.231642,-1.452733,1.419080,1.353019,-0.676111,0.043459,-0.943036,-0.329839,0.277693,0.411283,0.576787,-2.392464,-29.661110,2.713335,,,,,,,5
1508447011.037185,0.187653,1.269188,-1.496744,2.140365,0.066544,0.042248,0.055417,-0.954860,-0.291842,0.084125,-0.584569,-1.145750,-1.982786,-29.540760,4.034792,,,,,,,5
1508447011.057186,0.107497,1.293814,-1.436888,0.131430,-1.326312,1.519514,0.029339,-0.961885,-0.271876,-0.250668,-1.727187,-3.595907,-2.157935,-29.401375,4.875434,,,,,,,5
1508447011.077207,-0.063682,1.291029,-1.274412,-0.264348,-0.720721,2.387666,-0.017573,-0.961120,-0.275572,-0.476827,-0.848603,-2.204973,-3.046849,-29.297607,5.023382,,,,,,,5
1508447011.097221,-0.171406,1.280226,-1.174501,-0.374563,-0.365126,0.771807,-0.048868,-0.958081,-0.282300,-0.073050,0.366436,-0.248461,-4.406132,-29.152124,4.858710,,,,,,,5
1508447011.117231,-0.174892,1.274733,-1.171856,-0.082296,0.160050,-0.287998,-0.050766,-0.956493,-0.287306,0.126343,0.062633,0.071486,-4.593123,-29.152767,4.678339,,,,,,,5
1508447011.137244,-0.126846,1.282786,-1.209577,0.509026,0.815890,-0.696806,-0.035933,-0.958811,-0.281763,0.161666,-0.149679,0.154962,-4.495090,-29.169600,4.668622,,,,,,,5
1508447011.157256,-0.068998,1.298012,-1.256239,0.824346,0.386661,-0.662586,-0.018574,-0.963025,-0.268773,0.217991,-0.356861,0.121937,-4.177025,-29.185196,4.862542,,,,,,,5
1508447011.177267,-0.047979,1.325047,-1.268754,1.682062,0.874277,0.075278,-0.011668,-0.969955,-0.243003,0.051066,-0.473480,0.445090,-3.790751,-29.132402,5.459008,,,,,,,5
1508447011.197259,-0.057655,1.351173,-1.224996,0.783112,2.058682,0.519140,-0.012554,-0.975980,-0.217500,-0.176945,-0.326968,0.699189,-3.895972,-28.986769,6.120133,,,,,,,5
1508447011.217284,-0.048831,1.345056,-1.178714,-0.749515,2.890318,0.542254,-0.010925,-0.974629,-0.223561,0.119507,0.061207,0.521092,-4.752408,-28.820168,6.299208,,,,,,,5
1508447011.237297,-0.051498,1.335754,-1.132707,0.061558,1.239074,0.556219,-0.011988,-0.972504,-0.232576,0.266016,0.202363,0.486802,-5.232059,-28.846230,5.778231,,,,,,,5
1508447011.257309,-0.092672,1.363344,-1.103988,2.133981,-1.686682,-0.067734,-0.019060,-0.978559,-0.205084,0.351427,0.395169,0.631872,-5.565508,-28.794888,5.722488,,,,,,,5
1508447011.277312,-0.098353,1.418028,-1.148352,2.830221,-2.459554,-1.014436,-0.014943,-0.988354,-0.151440,0.213994,0.290157,1.071133,-5.031093,-28.389881,7.846672,,,,,,,5
1508447011.297340,0.081116,1.472719,-1.350223,2.527170,-0.029883,-1.330264,0.007934,-0.995194,-0.097598,0.051224,-0.073455,0.879672,-4.062732,-28.014313,9.568695,,,,,,,5
1508447011.317327,0.526499,1.506572,-1.771826,1.830396,1.730937,-0.979060,0.032251,-0.997938,-0.055489,-0.062372,-0.171495,0.479622,-3.728821,-27.823027,10.239265,,,,,,,5
1508447011.337366,1.131089,1.519785,-2.354515,1.634115,0.444455,-0.401367,0.046139,-0.998699,-0.021705,-0.262417,-0.299778,-0.541741,-3.445539,-27.322395,11.596651,,,,,,,5
1508447011.357357,1.885118,1.522993,-3.122198,2.000024,-1.102342,0.248913,0.045444,-0.998858,0.014774,-0.084201,-0.046995,-0.195957,-3.348049,-27.025579,12.299431,,,,,,,5
1508447011.377388,2.529766,1.500142,2.489146,2.284370,-1.338211,0.283024,0.040547,-0.997505,0.057789,-0.039434,0.078850,-0.094182,-3.187953,-26.481121,13.470509,,,,,,,5
1508447011.397401,2.785991,1.461583,2.209809,2.249233,-0.875477,0.151056,0.037948,-0.994042,0.102177,-0.057570,0.225808,0.165584,-2.914478,-25.649597,15.048967,,,,,,,5
1508447011.417413,2.883389,1.419163,2.102757,2.219481,-0.261108,-0.059545,0.038570,-0.988526,0.146045,-0.054348,0.238755,0.143536,-2.796628,-25.125212,15.930161,,,,,,,5
1508447011.437424,2.906154,1.377784,2.075604,1.933680,-0.181532,-0.434504,0.044745,-0.981431,0.186524,-0.047873,0.316300,-0.011079,-2.662132,-24.410542,17.026627,,,,,,,5
1508447011.457438,2.902997,1.345210,2.077390,1.416154,-0.111095,-0.420622,0.052864,-0.974663,0.217341,-0.000068,0.073265,-0.168788,-2.378736,-23.656590,18.099028,,,,,,,5
1508447011.477448,2.889618,1.317371,2.087767,1.280980,-0.175860,-0.430305,0.062509,-0.968059,0.242804,-0.084573,-0.145008,-0.130881,-2.110892,-23.178122,18.739964,,,,,,,5
1508447011.497461,2.887393,1.289975,2.083377,1.415947,-0.459839,-0.202615,0.069694,-0.960828,0.268239,-0.238777,-0.209094,-0.075887,-1.919977,-22.822254,19.191816,,,,,,,5
1508447011.517455,2.892085,1.259771,2.062283,1.585087,-0.921270,0.017770,0.075568,-0.952020,0.296559,-0.244102,0.063058,-0.101643,-1.537837,-22.108742,20.042604,,,,,,,5
1508447011.537485,2.905898,1.229594,2.028681,1.598576,-0.861141,0.202127,0.078140,-0.942353,0.325368,-0.069244,0.130280,-0.070577,-1.213514,-21.456654,20.760704,,,,,,,5
1508447011.557488,2.918674,1.198313,1.997775,1.694497,-0.788153,0.127377,0.080457,-0.931426,0.354925,0.046970,0.113357,-0.063665,-1.078323,-21.118633,21.111801,,,,,,,5
1508447011.577483,2.921637,1.163042,1.977231,1.862047,-0.790070,-0.091643,0.086521,-0.918014,0.386995,0.309581,0.000548,-0.181657,-0.613597,-19.996666,22.195141,,,,,,,5
1508447011.597520,2.919193,1.126027,1.967535,1.796145,-0.374243,-0.275009,0.094900,-0.902710,0.419653,0.262293,-0.148560,-0.457876,-0.247758,-19.155869,22.931610,,,,,,,5
1508447011.617516,2.913416,1.091585,1.966185,1.653737,-0.488259,-0.395522,0.104297,-0.887359,0.449129,0.067868,-0.279847,-0.590242,-0.116260,-18.748577,23.266819,,,,,,,5
1508447011.637546,2.895074,1.059654,1.966663,1.418624,-1.095572,-0.334037,0.119373,-0.872186,0.474385,-0.249134,-0.504218,-0.777135,0.522719,-17.586246,24.151978,,,,,,,5
1508447011.657556,2.877030,1.040054,1.960053,0.739862,-1.171650,-0.016015,0.132358,-0.862432,0.488562,-0.165164,-0.567164,-0.759269,1.150698,-17.019016,24.533577,,,,,,,5
1508447011.677568,2.856938,1.034331,1.958634,-0.043921,-0.933254,-0.010592,0.143530,-0.859521,0.490533,-0.132788,-0.541831,-0.750864,1.442386,-16.854191,24.631752,,,,,,,5
1508447011.697582,2.840163,1.046478,1.969612,-1.069511,0.004869,-0.141859,0.148628,-0.865666,0.478051,0.010063,-0.560833,-1.062188,2.033588,-16.977978,24.504698,,,,,,,5
1508447011.717586,2.817679,1.073906,1.992344,-1.481231,-0.679046,-0.139386,0.151722,-0.879069,0.451905,-0.274387,-0.630010,-1.279526,2.052608,-17.639729,24.031111,,,,,,,5
1508447011.737604,2.753581,1.099855,2.020988,-1.641116,-2.393634,-0.159039,0.171666,-0.891142,0.419997,-0.421193,-0.746019,-1.169722,2.313972,-17.978252,23.754902,,,,,,,5
1508447011.757617,2.665840,1.142400,2.078146,-2.917026,-1.229120,-0.295395,0.190262,-0.909633,0.369280,0.072174,-0.476536,-0.328204,3.871227,-19.267275,22.508957,,,,,,,5
1508447011.777629,2.569337,1.192446,2.169426,-2.942030,-0.492618,-0.211994,0.200035,-0.929275,0.310538,0.126091,-0.252381,0.182367,4.354671,-20.576712,21.225063,,,,,,,5
1508447011.797640,2.481725,1.232489,2.245867,-2.083226,-1.103469,0.218401,0.203453,-0.943318,0.262218,-0.066612,-0.720989,0.512715,4.566623,-21.422028,20.325109,,,,,,,5
1508447011.817654,2.405173,1.266153,2.294675,-1.745361,-1.574464,0.767048,0.201460,-0.953954,0.222229,-0.152297,-0.959529,0.686264,5.031000,-22.421562,19.100525,,,,,,,5
1508447011.837665,2.340776,1.317081,2.338749,-2.667198,-0.672353,1.592751,0.180201,-0.967987,0.174728,-0.382044,-0.707123,0.134354,5.007584,-23.285879,18.043262,,,,,,,5
1508447011.857677,2.185896,1.388186,2.500793,-4.151998,0.613655,1.535683,0.148313,-0.983373,0.104789,-0.407835,-0.510890,-0.022590,4.510454,-24.200981,16.936226,,,,,,,5
1508447011.877684,1.736686,1.447539,2.974140,-4.332638,1.059811,1.198070,0.121258,-0.992413,0.020302,0.079838,-0.376941,0.210289,3.320165,-26.005497,14.337297,,,,,,,5
1508447011.897701,1.101138,1.455558,-2.652299,-3.409782,0.545161,0.896523,0.102534,-0.993367,-0.052040,0.317632,-0.190593,0.477973,2.684166,-26.885286,12.761038,,,,,,,5
1508447011.917687,0.652265,1.429962,-2.192470,-2.863482,0.394003,0.891335,0.085203,-0.990099,-0.111553,0.308001,-0.088209,0.584637,2.212333,-27.537182,11.387566,,,,,,,5
1508447011.937711,0.394932,1.392242,-1.923061,-2.567617,0.449301,0.952380,0.068333,-0.984102,-0.163935,-0.047932,0.185853,0.543238,1.333103,-28.457037,9.015945,,,,,,,5
1508447011.957737,0.231900,1.353411,-1.746671,-2.266603,0.573929,1.093376,0.049568,-0.976465,-0.209904,-0.142983,0.349618,0.624958,0.672123,-28.884991,7.620562,,,,,,,5
1508447011.977749,0.132875,1.314632,-1.627178,-2.113284,1.054613,0.958718,0.033568,-0.967369,-0.251139,-0.125822,0.369209,0.667902,0.309707,-29.053982,6.974072,,,,,,,5
1508447011.997762,0.074215,1.275050,-1.537055,-2.060557,1.577751,1.101160,0.021610,-0.956585,-0.290651,-0.086613,0.549450,0.686205,-0.767930,-29.431807,5.103568,,,,,,,5
1508447012.017776,0.037693,1.240220,-1.462200,-1.589773,1.807465,0.940184,0.012232,-0.945856,-0.324357,-0.079096,0.539728,0.674257,-1.374364,-29.551878,4.202986,,,,,,,5
1508447012.037785,0.040420,1.215069,-1.422355,-1.151480,2.155028,0.451088,0.014073,-0.937393,-0.347988,-0.058187,0.499115,0.693920,-1.892277,-29.620556,3.451014,,,,,,,5
1508447012.057799,0.069627,1.194387,-1.404548,-1.014772,2.293142,0.171229,0.025573,-0.929991,-0.366693,0.083146,0.463133,0.693292,-2.456199,-29.691761,2.287746,,,,,,,5
1508447012.077785,0.104492,1.175987,-1.399217,-0.843689,1.703662,-0.073761,0.040118,-0.923070,-0.382534,0.169721,0.459371,0.632931,-2.587575,-29.725361,1.604600,,,,,,,5
1508447012.097821,0.128097,1.163669,-1.399082,-0.419527,0.851514,-0.054933,0.050584,-0.918262,-0.392729,0.164717,0.483768,0.597655,-2.586622,-29.739344,1.322185,,,,,,,5
1508447012.117835,0.136544,1.162926,-1.403869,0.186890,-0.191063,-0.085852,0.053993,-0.917968,-0.392963,0.120888,0.457458,0.456531,-2.566716,-29.754053,0.987778,,,,,,,5
1508447012.137846,0.127243,1.175649,-1.409599,0.935692,-1.048473,-0.003658,0.048849,-0.922940,-0.381832,0.165323,0.330502,0.320462,-2.497095,-29.749054,1.275067,,,,,,,5
1508447012.157857,0.106121,1.202151,-1.417808,1.551389,-1.522671,-0.024488,0.038169,-0.932816,-0.358325,0.290886,0.233506,0.122531,-2.471523,-29.723232,1.813424,,,,,,,5
1508447012.177872,0.096816,1.238522,-1.431357,1.940680,-0.752643,-0.012174,0.031532,-0.945303,-0.324666,0.316949,-0.063212,-0.296107,-6.373445,-30.652323,1.501255,,,,,,,5
1508447012.197882,0.086005,1.268632,-1.424893,0.971670,0.082215,0.409550,0.025563,-0.954695,-0.296487,-0.256993,-0.695223,-1.782568,-6.436429,-30.563955,2.618480,,,,,,,5
1508447012.217895,0.042243,1.269434,-1.370246,-0.313732,0.550363,1.028558,0.012535,-0.954933,-0.296556,-0.501198,-0.596657,-1.475630,-6.709253,-30.487347,2.819053,,,,,,,5
1508447012.237883,0.000687,1.269726,-1.307612,0.261481,1.101420,0.728141,0.000204,-0.955020,-0.296543,-0.364324,-0.000959,-0.404370,-7.506432,-30.323471,2.565136,,,,,,,5
1508447012.257919,0.001271,1.278630,-1.284776,0.318939,1.065293,0.144058,0.000366,-0.957622,-0.288028,-0.082825,-0.227849,-0.666730,-7.803040,-30.243763,2.620471,,,,,,,5
1508447012.277917,0.019622,1.276773,-1.282456,-0.139587,0.956527,-0.041881,0.005686,-0.957086,-0.289750,0.097158,-0.169395,0.186951,-7.940590,-30.212387,2.568671,,,,,,,5
1508447012.297942,0.058065,1.286746,-1.317622,1.017625,-0.420230,-0.770173,0.016263,-0.959928,-0.279773,0.327197,-0.194109,0.749240,-7.806926,-30.249239,2.544589,,,,,,,5
1508447012.317955,0.086713,1.314237,-1.378476,1.475613,-1.753718,-0.472467,0.021976,-0.967269,-0.252801,0.450451,-0.422807,0.824334,-7.394987,-30.288376,3.219935,,,,,,,5
1508447012.337966,0.078236,1.328750,-1.369480,0.101960,1.645471,0.455740,0.018733,-0.970850,-0.238956,0.509831,-0.397986,0.603275,-7.099032,-30.260168,4.045407,,,,,,,5
1508447012.357980,0.103268,1.313024,-1.339700,-1.081807,2.499957,0.079278,0.026279,-0.966960,-0.253569,0.354901,0.298763,0.209822,-7.587847,-30.198145,3.596681,,,,,,,5
1508447012.377872,0.152443,1.308716,-1.371237,0.661762,-0.109673,-0.722832,0.039344,-0.965853,-0.256086,-0.077048,0.358080,0.730543,-7.554697,-30.272070,2.994609,,,,,,,5
1508447012.397883,0.233140,1.342469,-1.479673,2.485799,-1.644429,-0.964475,0.052294,-0.974046,-0.220225,-0.180636,0.303346,0.910853,-7.298011,-30.302017,3.311528,,,,,,,5
1508447012.417880,0.341290,1.393574,-1.613085,2.815205,-0.502401,-0.301816,0.059007,-0.984337,-0.166128,-0.281419,-0.057182,1.121892,-6.598944,-30.247837,4.895065,,,,,,,5
1508447012.437896,0.481995,1.432812,-1.743147,1.708951,1.025320,-0.140498,0.063760,-0.990495,-0.121876,-0.420480,-0.127028,0.123204,-6.279144,-29.828400,7.299201,,,,,,,5
1508447012.457921,0.576597,1.449530,-1.824190,0.698354,0.448829,0.111587,0.065950,-0.992656,-0.101412,-0.433030,-0.218373,-0.381483,-6.314440,-29.721706,7.693336,,,,,,,5
1508447012.477935,0.629854,1.467737,-1.872602,1.175210,0.100782,0.297331,0.060598,-0.994694,-0.083137,-0.001394,0.050450,0.073966,-6.556443,-29.492136,8.346643,,,,,,,5
1508447012.497925,0.883219,1.493989,-2.132554,2.067405,-0.490698,-0.106743,0.059297,-0.997052,-0.048699,0.146468,0.124219,0.167901,-6.620229,-29.204613,9.257565,,,,,,,5
1508447012.517956,1.554810,1.507313,-2.816951,2.558488,-0.523265,-0.231548,0.063433,-0.997986,-0.001014,0.136946,0.086914,0.080116,-6.464793,-28.893627,10.286110,,,,,,,5
1508447012.537971,2.210237,1.489069,2.802987,2.408843,-0.170744,-0.000402,0.065508,-0.996662,0.048716,0.040114,0.069508,0.024053,-6.220089,-28.207905,12.168154,,,,,,,5
1508447012.557964,2.546199,1.460137,2.466493,1.959965,0.145930,0.263383,0.061935,-0.993883,0.091431,-0.075729,0.232165,0.127227,-6.273683,-27.616827,13.430979,,,,,,,5
1508447012.577969,2.717586,1.433356,2.299165,1.543708,0.299916,0.185531,0.056367,-0.990570,0.124876,-0.070161,0.228851,0.093783,-6.273683,-27.616827,13.430979,,,,,,,5
1508447012.598006,2.792124,1.404695,2.228877,1.555029,0.204110,-0.172202,0.056612,-0.986237,0.155344,-0.110796,0.158417,0.119512,-6.566087,-26.857067,14.765633,,,,,,,5
1508447012.618019,2.832460,1.371105,2.189841,1.812808,0.025461,-0.184051,0.060350,-0.980128,0.188964,-0.168153,-0.053976,0.018281,-6.547356,-26.280535,15.776724,,,,,,,5
1508447012.638029,2.872640,1.331801,2.148466,2.082067,-0.025379,-0.099881,0.062903,-0.971576,0.228216,-0.220023,-0.126644,-0.063909,-6.483628,-25.858698,16.484226,,,,,,,5
1508447012.658018,2.902332,1.293379,2.115437,1.874512,-0.089085,-0.121873,0.064904,-0.961766,0.266071,-0.131539,-0.062938,-0.033054,-6.380070,-24.829300,18.034409,,,,,,,5
1508447012.678055,2.919442,1.260176,2.097090,1.582720,0.033218,-0.127383,0.067343,-0.952144,0.298138,0.065744,-0.065403,-0.107892,-6.316125,-24.348021,18.700800,,,,,,,5
1508447012.698056,2.930794,1.229432,2.083694,1.583866,-0.222711,-0.100949,0.070048,-0.942299,0.327362,0.176229,-0.038979,-0.244584,-6.262034,-23.764482,19.454453,,,,,,,5
1508447012.718071,2.933392,1.193778,2.064820,1.984479,-1.104314,-0.002481,0.076097,-0.929766,0.360200,0.230056,-0.051603,-0.361207,-5.993095,-22.938900,20.501930,,,,,,,5
1508447012.738090,2.926946,1.149223,2.037789,2.439319,-1.765049,0.076370,0.087160,-0.912446,0.399807,0.203093,-0.089629,-0.436550,-5.413783,-22.019308,21.639790,,,,,,,5
1508447012.758101,2.919431,1.100778,2.004753,2.563800,-1.780844,0.134882,0.099792,-0.891560,0.441772,0.075715,-0.163265,-0.485199,-5.040463,-21.473743,22.269070,,,,,,,5
1508447012.778115,2.915764,1.055454,1.976033,2.113062,-1.259884,0.185857,0.110352,-0.870124,0.480319,-0.041398,-0.407311,-0.767413,-3.968859,-19.721998,24.036020,,,,,,,5
1508447012.798126,2.905190,1.029633,1.961682,0.837804,-1.110188,-0.033246,0.120648,-0.857110,0.500806,0.046833,-0.546027,-0.792203,-3.433063,-18.904306,24.764507,,,,,,,5
1508447012.818137,2.880734,1.027608,1.966938,-0.339614,-0.872224,-0.211015,0.133306,-0.856065,0.499381,0.033000,-0.478239,-0.730613,-3.147550,-18.739647,24.927052,,,,,,,5
1508447012.838151,2.854894,1.039304,1.985428,-0.799696,-0.270019,-0.319767,0.143322,-0.862052,0.486133,-0.203183,-0.445474,-0.872821,-2.440409,-19.033529,24.783232,,,,,,,5
1508447012.858154,2.830281,1.056427,2.006294,-1.165018,-0.563570,-0.170746,0.150699,-0.870603,0.468337,-0.478351,-0.735644,-1.518889,-2.206400,-19.480049,24.456059,,,,,,,5
1508447012.878150,2.791871,1.089957,2.023763,-2.016268,-1.375017,0.357180,0.158477,-0.886607,0.434526,-0.593627,-0.876424,-1.653764,-2.012012,-19.793842,24.219723,,,,,,,5
1508447012.898188,2.746898,1.137542,2.050252,-2.693457,-0.704979,0.171091,0.161434,-0.907604,0.387548,0.173755,-0.447803,-0.639333,-1.510894,-20.699104,23.488373,,,,,,,5
1508447012.918190,2.675425,1.188717,2.120842,-2.927929,-0.339328,-0.411919,0.167584,-0.927891,0.333066,0.576160,-0.221721,0.057253,-1.175691,-22.209829,22.085756,,,,,,,5
1508447012.938210,2.561984,1.233007,2.226371,-2.772018,-0.985578,-0.488847,0.181508,-0.943490,0.277277,0.353038,-0.416786,0.575064,-0.792845,-23.465847,20.764507,,,,,,,5
1508447012.958223,2.428997,1.270863,2.338058,-2.457480,-1.490716,0.013798,0.193169,-0.955356,0.223562,0.044746,-0.807766,0.690134,0.019969,-24.807390,19.158091,,,,,,,5
1508447012.978229,2.318247,1.314514,2.427413,-2.509474,-1.015584,0.993293,0.185913,-0.967339,0.172313,-0.663757,-0.801460,0.102879,0.327642,-25.701950,17.937160,,,,,,,5
1508447012.998246,2.170250,1.375088,2.563933,-3.465729,-0.600952,1.547898,0.160556,-0.980910,0.109713,-0.713244,-0.732209,-0.169940,0.093554,-26.414131,16.873775,,,,,,,5
1508447013.018251,1.839257,1.431704,2.897216,-3.681714,0.205409,1.226237,0.133678,-0.990342,0.036775,-0.160168,-0.504973,0.336058,-0.742105,-27.793434,14.471130,,,,,,,5
1508447013.038270,1.320638,1.448856,-2.851215,-3.221756,0.772966,0.462782,0.117852,-0.992575,-0.030112,0.292884,-0.410609,0.482261,-1.278721,-28.522528,12.933278,,,,,,,5
1508447013.058285,0.880348,1.424850,-2.393591,-3.264161,0.760944,0.360207,0.112120,-0.989369,-0.092621,0.204820,-0.030041,0.519578,-1.703151,-29.287798,11.034657,,,,,,,5
1508447013.078279,0.603679,1.386858,-2.100134,-3.006830,0.269066,0.697354,0.103829,-0.983131,-0.150575,-0.004296,0.240882,0.483293,-2.176798,-30.035828,8.691956,,,,,,,5
1508447013.098306,0.403442,1.350675,-1.897627,-2.319262,-0.262478,0.996497,0.085720,-0.975871,-0.200818,-0.091427,0.421290,0.619611,-2.687893,-30.424438,7.040470,,,,,,,5
1508447013.118318,0.264058,1.318620,-1.757106,-1.908367,-0.001427,0.977726,0.065123,-0.968372,-0.240864,-0.083799,0.436908,0.688145,-2.687893,-30.424438,7.040470,,,,,,,5
1508447013.138331,0.175892,1.288117,-1.660688,-1.678395,0.370983,0.878756,0.048809,-0.960312,-0.274626,-0.127773,0.461105,0.690672,-3.590130,-30.707136,5.159665,,,,,,,5
1508447013.158344,0.123184,1.259582,-1.594889,-1.468314,0.632354,0.617696,0.037626,-0.951962,-0.303895,-0.148633,0.425992,0.718491,-4.415015,-30.823847,3.582954,,,,,,,5
1508447013.178355,0.111517,1.232982,-1.561804,-1.357262,1.242951,0.261320,0.036883,-0.943481,-0.329367,-0.117770,0.376541,0.746130,-4.415015,-30.823847,3.582954,,,,,,,5
1508447013.198369,0.122361,1.206315,-1.534281,-1.434771,2.258198,0.455231,0.043509,-0.934309,-0.353800,0.113565,0.650724,0.842386,-4.858379,-30.890133,2.152946,,,,,,,5
1508447013.218379,0.137531,1.187370,-1.503118,-0.564462,1.801634,0.351337,0.051288,-0.927388,-0.370567,0.114697,0.673375,0.683724,-5.323168,-30.881882,0.642360,,,,,,,5
1508447013.238392,0.142657,1.190786,-1.485386,0.513588,0.732375,0.356233,0.052737,-0.928661,-0.367162,0.112211,0.659236,0.679646,-5.323168,-30.881882,0.642360,,,,,,,5
1508447013.258404,0.129076,1.210630,-1.462564,1.100921,0.208536,0.732292,0.045364,-0.935838,-0.349498,0.222748,0.206300,0.503963,-5.836213,-30.784630,0.827470,,,,,,,5
1508447013.278412,0.088564,1.235081,-1.420701,1.098932,-0.198211,0.768169,0.029139,-0.944175,-0.328154,0.091024,0.210029,0.280928,-6.217756,-30.691603,1.343291,,,,,,,5
1508447013.298428,0.057198,1.257078,-1.396686,1.115942,-0.620558,0.295244,0.017642,-0.951193,-0.308093,-0.041750,0.193823,-0.130292,-6.636973,-30.565310,2.037590,,,,,,,5
1508447013.318440,0.015263,1.281323,-1.377235,1.155501,-1.463554,0.442933,0.004357,-0.958394,-0.285414,-0.088982,-0.091334,-0.904054,-6.758404,-30.494770,2.613886,,,,,,,5
1508447013.338439,-0.049885,1.288504,-1.336523,-0.251587,-0.992615,0.626522,-0.013890,-0.960419,-0.278212,-0.107326,-0.583968,-1.855990,-6.975479,-30.340605,3.637280,,,,,,,5
1508447013.358454,-0.094941,1.277901,-1.299778,-0.332539,-0.326032,0.453869,-0.027371,-0.957412,-0.287425,-0.324650,-0.262772,-0.947789,-7.284637,-30.274641,3.580444,,,,,,,5
1508447013.378451,-0.118834,1.281525,-1.281037,0.450538,-0.199007,0.138877,-0.033818,-0.958452,-0.283242,-0.221049,0.010652,-0.342689,-7.533692,-30.214537,3.572774,,,,,,,5
1508447013.398489,-0.130282,1.290389,-1.259591,0.405948,0.868401,0.368236,-0.035953,-0.960943,-0.274401,-0.173580,-0.185053,-0.019162,-7.660316,-30.150019,3.838666,,,,,,,5
1508447013.418484,-0.133446,1.293027,-1.228693,0.134152,1.465551,0.361120,-0.036484,-0.961670,-0.271773,-0.123016,-0.332520,-0.063783,-7.660316,-30.150019,3.838666,,,,,,,5
1508447013.438504,-0.128410,1.303342,-1.210025,0.947357,0.916961,0.058642,-0.033843,-0.964447,-0.262102,-0.054445,-0.439316,0.309785,-8.248372,-29.998985,3.803232,,,,,,,5
1508447013.458524,-0.119395,1.332885,-1.201894,1.636493,0.928843,-0.084725,-0.028071,-0.971832,-0.233996,-0.071538,-0.348633,0.486986,-8.289774,-29.898998,4.446231,,,,,,,5
1508447013.478534,-0.116631,1.363208,-1.182235,1.317674,1.246190,0.087502,-0.023983,-0.978531,-0.204700,0.028347,-0.280396,0.265629,-8.289774,-29.898998,4.446231,,,,,,,5
1508447013.498549,-0.076482,1.376253,-1.184945,0.308403,1.944821,-0.174775,-0.014771,-0.981136,-0.192753,0.464554,0.323314,0.487339,-8.477282,-29.675919,5.469455,,,,,,,5
1508447013.518560,-0.058422,1.381021,-1.178418,0.365784,0.832811,0.209230,-0.011014,-0.982047,-0.188316,0.288251,0.361426,0.699287,-8.686491,-29.635429,5.359624,,,,,,,5
1508447013.538571,-0.084851,1.395667,-1.147194,0.985045,-0.252359,0.151766,-0.014766,-0.984704,-0.173609,0.243007,0.344674,0.715708,-8.686491,-29.635429,5.359624,,,,,,,5
1508447013.558586,-0.104102,1.423086,-1.145220,1.573854,-1.012554,-0.242162,-0.015293,-0.989111,-0.146377,0.045994,0.229269,0.820464,-8.793610,-29.382368,6.464386,,,,,,,5
1508447013.578583,-0.101300,1.460460,-1.155631,1.994973,0.154600,-0.278264,-0.011135,-0.993919,-0.109548,-0.124347,0.070427,0.772497,-8.597433,-29.240789,7.314356,,,,,,,5
1508447013.598608,0.019448,1.501299,-1.261993,1.935809,0.821247,-0.732894,0.001350,-0.997586,-0.069428,-0.201851,0.078549,0.577073,-8.443407,-28.984056,8.430466,,,,,,,5
1508447013.618622,0.366638,1.532766,-1.603830,1.559769,-0.084509,-0.368282,0.013630,-0.999277,-0.035494,-0.567661,-0.222250,-0.451536,-8.239290,-28.817728,9.170168,,,,,,,5
1508447013.638633,1.057272,1.558644,-2.296881,1.491342,-0.001120,0.378667,0.010584,-0.999926,-0.005969,0.012365,-0.298139,-0.054455,-8.002322,-28.501003,10.300240,,,,,,,5
1508447013.658627,3.031197,1.538970,2.010558,2.192234,-0.221751,0.276747,0.003506,-0.999494,0.031627,0.145451,-0.208972,0.051914,-8.150726,-28.216568,10.946710,,,,,,,5
1508447013.678658,3.040962,1.486524,1.994114,2.764477,-0.318523,-0.575722,0.008456,-0.996451,0.083747,0.064939,0.310004,0.172784,-8.268032,-27.690479,12.137395,,,,,,,5
1508447013.698669,2.934282,1.431881,2.098660,2.451317,0.007697,-1.206259,0.028501,-0.990367,0.135504,-0.049619,0.430674,0.079492,-7.799611,-26.918072,14.036486,,,,,,,5
1508447013.718655,2.851376,1.385075,2.184852,1.811177,0.160252,-1.119860,0.052841,-0.982803,0.176934,-0.096970,0.353561,-0.036797,-7.318381,-26.517948,15.022621,,,,,,,5
1508447013.738681,2.824794,1.348633,2.216374,1.657128,0.169212,-0.708004,0.068642,-0.975423,0.209375,-0.116005,-0.117289,0.139807,-6.565747,-25.879398,16.419109,,,,,,,5
1508447013.758706,2.824317,1.312027,2.213511,1.776149,-0.409842,-0.410396,0.079833,-0.966706,0.243119,-0.065062,-0.187195,0.066588,-6.330303,-25.514416,17.069895,,,,,,,5
1508447013.778713,2.833225,1.277278,2.191582,1.701356,-0.623658,-0.200355,0.087810,-0.957232,0.275675,-0.037899,-0.114378,-0.080195,-5.981202,-24.938816,18.019989,,,,,,,5
1508447013.798721,2.844080,1.245638,2.169521,1.593607,-0.436398,-0.134024,0.093647,-0.947600,0.305424,0.023205,-0.069047,-0.213810,-5.737515,-24.488474,18.703876,,,,,,,5
1508447013.818742,2.859035,1.212617,2.144058,1.771227,-0.513579,-0.001653,0.097743,-0.936537,0.336668,0.140660,-0.064867,-0.286390,-5.390956,-23.556725,19.961405,,,,,,,5
1508447013.838741,2.874798,1.177876,2.112979,1.844568,-0.730924,0.132946,0.100945,-0.923795,0.369341,0.265220,0.020246,-0.396273,-5.225753,-23.006805,20.635353,,,,,,,5
1508447013.858767,2.888384,1.142284,2.081153,1.895742,-0.809618,0.117338,0.104092,-0.909585,0.402268,0.274997,0.105416,-0.657609,-5.041987,-22.415503,21.320484,,,,,,,5
1508447013.878779,2.885650,1.105255,2.059890,1.949520,-1.303157,-0.050821,0.113644,-0.893579,0.434283,0.077900,-0.182349,-0.808490,-4.836777,-21.789742,22.005730,,,,,,,5
1508447013.898788,2.868507,1.069489,2.039823,1.659088,-1.985888,0.004826,0.129612,-0.876955,0.462764,-0.014439,-0.433271,-0.778804,-3.965288,-20.483601,23.390982,,,,,,,5
1508447013.918803,2.832571,1.048350,2.034638,0.625736,-1.968332,-0.295430,0.151760,-0.866601,0.475365,-0.097668,-0.497855,-0.751015,-3.512326,-20.072042,23.816298,,,,,,,5
1508447013.938808,2.788967,1.045061,2.044543,-0.194414,-1.588437,-0.235899,0.173320,-0.864955,0.470970,-0.346248,-0.528462,-0.547020,-1.715605,-19.526611,24.458282,,,,,,,5
1508447013.958825,2.758281,1.055778,2.058442,-0.921517,-0.394355,-0.036567,0.184211,-0.870284,0.456807,-0.410743,-0.563630,-0.533604,-1.307696,-19.596199,24.427818,,,,,,,5
1508447013.978840,2.745392,1.083971,2.074572,-1.702771,-0.027276,0.312886,0.180540,-0.883822,0.431582,-0.572233,-0.821286,-1.161334,-0.993604,-19.997978,24.114998,,,,,,,5
1508447013.998850,2.720612,1.120662,2.084549,-1.870916,-1.227652,0.607654,0.177800,-0.900389,0.397098,-0.607015,-0.755861,-1.052555,-1.075884,-20.952335,23.286938,,,,,,,5
1508447014.018862,2.671068,1.172435,2.119089,-3.159226,-0.352553,0.337884,0.175860,-0.921698,0.345755,-0.346941,-0.628015,-0.887289,-0.861783,-21.603722,22.693079,,,,,,,5
1508447014.038875,2.592145,1.232521,2.213110,-3.400426,0.582620,-0.213872,0.173303,-0.943328,0.283015,0.540167,-0.180085,-0.062862,-0.895778,-23.636137,20.566235,,,,,,,5
1508447014.058887,2.472871,1.278364,2.338355,-2.717368,-0.496040,-0.222891,0.178730,-0.957545,0.226191,0.449825,-0.358128,0.312765,-0.909301,-24.611422,19.387896,,,,,,,5
1508447014.078876,2.335317,1.310354,2.447863,-1.881348,-2.272372,0.174492,0.185847,-0.966276,0.178245,0.342183,-0.910570,0.441522,-0.679184,-25.381395,18.378325,,,,,,,5
1508447014.098910,2.224687,1.346021,2.506006,-1.689397,-2.671029,1.336347,0.176911,-0.974844,0.135578,-0.182603,-0.803934,0.364483,0.222566,-26.380014,16.925859,,,,,,,5
1508447014.118922,2.101606,1.400953,2.597373,-2.802896,-0.997258,1.945973,0.145769,-0.985611,0.085567,-0.516771,-0.597244,0.005848,0.038835,-27.038973,15.853448,,,,,,,5
1508447014.138912,1.695974,1.458821,3.005012,-3.890038,0.389406,1.569646,0.110867,-0.993737,0.013951,-0.469006,-0.589454,0.067195,-0.367513,-27.500219,15.034699,,,,,,,5
1508447014.158948,0.930969,1.466281,-2.493141,-3.817447,0.955710,1.300228,0.083690,-0.994543,-0.062288,0.101888,-0.309214,0.498705,-1.852269,-28.994221,11.761958,,,,,,,5
1508447014.178958,0.459240,1.425502,-1.998082,-3.227952,0.958263,0.904752,0.064178,-0.989463,-0.129783,0.273575,-0.099877,0.533210,-2.550586,-29.559828,10.106951,,,,,,,5
1508447014.198970,0.270972,1.375243,-1.794094,-2.860039,0.494204,0.708331,0.052010,-0.980940,-0.187219,0.221885,0.207610,0.557519,-3.219829,-30.089371,8.167125,,,,,,,5
1508447014.218983,0.154999,1.323952,-1.667010,-2.714368,0.394768,0.851069,0.037722,-0.969688,-0.241416,0.185072,0.494835,0.595450,-3.602693,-30.375679,6.839460,,,,,,,5
1508447014.238980,0.088816,1.277247,-1.592264,-2.262406,0.235382,0.605529,0.025665,-0.957223,-0.288211,0.133972,0.632653,0.652850,-4.279149,-30.685272,4.747869,,,,,,,5
1508447014.259006,0.052355,1.237792,-1.548001,-1.847062,0.363389,0.515357,0.017106,-0.945064,-0.326436,0.015151,0.652752,0.708730,-4.666713,-30.811882,3.359930,,,,,,,5
1508447014.278994,0.028320,1.207049,-1.512863,-1.389387,0.507745,0.563973,0.010074,-0.934570,-0.355636,0.008251,0.591751,0.710846,-4.838023,-30.845358,2.756217,,,,,,,5
1508447014.299011,0.012078,1.184610,-1.480618,-0.976376,0.843110,0.531435,0.004549,-0.926352,-0.376631,-0.033282,0.534690,0.735151,-5.472407,-30.841074,1.149016,,,,,,,5
1508447014.319041,0.016997,1.170307,-1.461093,-0.540679,1.372024,0.257533,0.006626,-0.920870,-0.389812,-0.093159,0.552767,0.766384,-5.636679,-30.822178,0.812765,,,,,,,5
1508447014.339056,0.043035,1.165607,-1.453115,-0.066821,1.812109,0.105260,0.016959,-0.919028,-0.393827,-0.094809,0.527091,0.789793,-5.881410,-30.786907,0.121603,,,,,,,5
1508447014.359070,0.081326,1.169253,-1.450692,0.305780,2.142089,0.045765,0.031750,-0.920459,-0.389547,0.036609,0.453632,0.784033,-5.927987,-30.778164,-0.055148,,,,,,,5
1508447014.379079,0.122928,1.179040,-1.449520,0.601748,2.013581,0.100283,0.046817,-0.924240,-0.378931,0.065915,0.455276,0.681742,-5.950320,-30.773811,-0.076034,,,,,,,5
1508447014.399094,0.144891,1.197464,-1.443379,1.110787,0.928515,0.359203,0.052660,-0.931117,-0.360899,0.047712,0.468135,0.398115,-6.070332,-30.749704,0.214644,,,,,,,5
1508447014.419104,0.127429,1.229217,-1.424319,1.737145,-0.634578,0.642155,0.042570,-0.942227,-0.332259,0.093248,-0.089145,-0.715958,-6.367481,-30.673820,1.005641,,,,,,,5
1508447014.439111,0.035702,1.258484,-1.371319,0.840748,-2.866195,1.211224,0.010968,-0.951626,-0.307064,0.272983,-0.689549,-1.543751,-6.367481,-30.673820,1.005641,,,,,,,5
1508447014.459109,-0.101914,1.262207,-1.298470,0.492416,-3.467436,0.866111,-0.030899,-0.952763,-0.302139,-0.020996,-0.970638,-1.309220,-7.381771,-30.329090,2.845197,,,,,,,5
1508447014.479140,-0.142638,1.278991,-1.293273,0.505111,-0.799253,-0.458438,-0.040895,-0.957726,-0.284760,-0.070967,0.213875,-0.533950,-7.474541,-30.233061,3.540154,,,,,,,5
1508447014.499142,-0.146756,1.290532,-1.300480,0.655513,-0.449652,-0.105566,-0.040449,-0.960982,-0.273636,-0.065188,0.319655,-0.052276,-7.216852,-30.237595,4.005544,,,,,,,5
1508447014.519165,-0.105913,1.293032,-1.322705,-0.351352,1.995281,-0.416546,-0.028988,-0.961671,-0.272670,-0.086094,-0.057876,0.083033,-7.077257,-30.233559,4.275963,,,,,,,5
1508447014.539176,0.010021,1.285503,-1.379132,-0.246511,3.234858,-1.054654,0.002820,-0.959579,-0.281425,0.014468,-0.472870,0.135383,-6.930462,-30.352802,3.621520,,,,,,,5
1508447014.559186,0.123582,1.292834,-1.455378,0.950755,1.176505,-0.746070,0.033824,-0.961617,-0.272304,0.000172,-0.657448,0.230236,-6.696095,-30.434029,3.372174,,,,,,,5
1508447014.579201,0.147497,1.324370,-1.470757,1.731742,0.287828,0.423470,0.035850,-0.969790,-0.241291,-0.000770,-0.769956,0.511371,-6.313361,-30.422607,4.128665,,,,,,,5
1508447014.599212,0.116918,1.343964,-1.414446,0.101071,1.790420,0.913706,0.026234,-0.974384,-0.223357,0.374218,0.084293,0.261000,-6.787886,-30.220764,4.803068,,,,,,,5
1508447014.619223,0.065281,1.333543,-1.336012,-0.640287,0.678121,0.790688,0.015332,-0.971987,-0.234533,0.209720,0.369128,0.405172,-7.311182,-30.147003,4.488231,,,,,,,5
