timestamp(unix),attitude_roll(radians),attitude_pitch(radians),attitude_yaw(radians),rotation_rate_x(radians/s),rotation_rate_y(radians/s),rotation_rate_z(radians/s),gravity_x(G),gravity_y(G),gravity_z(G),user_acc_x(G),user_acc_y(G),user_acc_z(G),magnetic_field_x(microteslas),magnetic_field_y(microteslas),magnetic_field_z(microteslas),latitude(degree),longitude(degree),altitude(meter),speed(m/s),course(degree),timestamp(unix),User Mark
1508446599.774161,0.025012,0.037992,-0.005843,0.137056,0.005045,-0.004080,0.024992,-0.037983,-0.998966,0.015261,0.097477,0.043949,-5.519297,-13.934225,-43.828373,,,,,,,5
1508446599.794172,0.024792,0.040036,-0.005907,0.055068,-0.016131,0.003746,0.024770,-0.040025,-0.998892,0.012736,0.003297,-0.017435,-5.493603,-13.918754,-43.836514,,,,,,,5
,,,,,,,,,,,,,,,,42.293433,-71.264288,58.590046,-1.000000,-1.000000,1508446585.164992,5
1508446599.814185,0.024467,0.040085,-0.005842,-0.012010,-0.012914,0.002130,0.024445,-0.040074,-0.998898,-0.005433,-0.020137,-0.002125,-5.512601,-13.954878,-43.822647,,,,,,,5
1508446599.834192,0.024375,0.040062,-0.005839,-0.013072,0.004099,-0.002129,0.024353,-0.040051,-0.998901,-0.002197,-0.007816,0.009674,-5.518132,-13.946161,-43.824722,,,,,,,5
,,,,,,,,,,,,,,,,42.293370,-71.264133,58.590046,-1.000000,-1.000000,1508446558.184137,5
,,,,,,,,,,,,,,,,42.293433,-71.264288,58.590046,-1.000000,-1.000000,1508446585.164992,5
1508446599.854187,0.024535,0.039777,-0.005939,-0.013068,0.007275,-0.005321,0.024513,-0.039766,-0.998908,0.000633,-0.000395,0.000938,-5.515812,-13.945244,-43.825306,,,,,,,5
1508446599.874213,0.024430,0.039836,-0.005953,0.009280,0.008348,0.001253,0.024408,-0.039826,-0.998908,-0.008478,-0.001556,0.005653,-5.506356,-13.937712,-43.828888,,,,,,,5
1508446599.894224,0.024759,0.040077,-0.005885,0.010333,0.024290,0.003403,0.024737,-0.040066,-0.998891,-0.004595,-0.002308,0.003850,-5.511126,-13.947377,-43.825214,,,,,,,5
1508446599.914209,0.025355,0.040040,-0.005834,-0.009897,0.028546,0.002175,0.025332,-0.040029,-0.998877,0.003584,-0.008402,-0.007730,-5.496474,-13.953134,-43.825226,,,,,,,5
1508446599.934239,0.025715,0.039741,-0.005825,-0.020525,0.000934,-0.000066,0.025692,-0.039731,-0.998880,0.003772,-0.002170,-0.000845,-5.466443,-13.938744,-43.833561,,,,,,,5
1508446599.954254,0.025516,0.039538,-0.005830,-0.000286,-0.013952,-0.000975,0.025494,-0.039528,-0.998893,0.006275,0.001290,0.012474,-5.466572,-13.928288,-43.836868,,,,,,,5
1508446599.974256,0.025385,0.039854,-0.005867,0.023139,-0.015025,-0.000782,0.025362,-0.039843,-0.998884,0.005109,0.001406,0.013319,-5.472794,-13.930082,-43.835518,,,,,,,5
1508446599.994275,0.024724,0.040382,-0.005809,0.014616,-0.026685,0.005527,0.024702,-0.040371,-0.998879,-0.007124,-0.004322,-0.009055,-5.487597,-13.956161,-43.825371,,,,,,,5
1508446600.014285,0.023235,0.040654,-0.005542,0.007154,-0.044706,0.016100,0.023213,-0.040643,-0.998904,-0.012425,-0.001548,-0.010389,-5.544453,-13.972443,-43.813026,,,,,,,5
,,,,,,,,,,,,,,,,42.293824,-71.265395,58.590046,-1.000000,-1.000000,1508446599.955867,5
,,,,,,,,,,,,,,,,42.293871,-71.265539,58.590046,-1.000000,-1.000000,1508446599.990974,5
1508446600.034294,0.021371,0.041109,-0.005162,0.030568,-0.031965,0.018432,0.021351,-0.041098,-0.998927,-0.019108,-0.000223,0.003459,-5.615460,-13.981501,-43.801090,,,,,,,5
1508446600.054306,0.019627,0.041996,-0.004667,0.047571,0.011599,0.024994,0.019608,-0.041984,-0.998926,-0.028565,0.000251,0.015970,-5.705824,-14.017525,-43.777893,,,,,,,5
1508446600.074314,0.018785,0.043088,-0.004129,0.052884,0.037084,0.023993,0.018766,-0.043074,-0.998896,-0.022963,0.000441,0.017054,-5.742496,-14.027901,-43.769772,,,,,,,5
1508446600.094325,0.018977,0.044242,-0.003563,0.058197,0.044552,0.030425,0.018958,-0.044227,-0.998842,-0.006781,0.000557,0.011873,-5.792224,-14.094721,-43.741745,,,,,,,5
,,,,,,,,,,,,,,,,42.293895,-71.265612,58.590046,-1.000000,-1.000000,1508446600.088730,5
1508446600.114337,0.019899,0.045638,-0.002892,0.054984,0.062636,0.036800,0.019877,-0.045623,-0.998761,-0.003245,-0.006425,-0.005908,-5.760594,-14.156618,-43.725933,,,,,,,5
,,,,,,,,,,,,,,,,42.293906,-71.265648,58.590046,-1.000000,-1.000000,1508446600.110095,5
1508446600.134342,0.021126,0.047299,-0.002116,0.040068,0.075402,0.039881,0.021101,-0.047281,-0.998659,-0.000868,-0.014288,-0.001845,-5.722375,-14.218261,-43.710949,,,,,,,5
1508446600.154356,0.022780,0.048277,-0.001306,0.027284,0.090282,0.039787,0.022751,-0.048259,-0.998576,-0.001053,-0.011022,0.004481,-5.722375,-14.218261,-43.710949,,,,,,,5
1508446600.174367,0.024740,0.049059,-0.000631,0.012395,0.096626,0.029021,0.024707,-0.049040,-0.998491,0.000164,-0.004900,0.013384,-5.627364,-14.294519,-43.698410,,,,,,,5
1508446600.194377,0.027015,0.049014,-0.000227,0.008148,0.114644,0.016223,0.026979,-0.048995,-0.998435,0.006544,0.004943,0.005393,-5.507411,-14.308052,-43.709259,,,,,,,5
1508446600.214387,0.029533,0.049016,0.000027,0.002837,0.105072,0.011913,0.029493,-0.048996,-0.998363,0.011355,0.004730,-0.001591,-5.507411,-14.308052,-43.709259,,,,,,,5
,,,,,,,,,,,,,,,,42.293368,-71.264132,58.765549,-1.000000,-1.000000,1508446600.200524,5
1508446600.234398,0.032452,0.048604,0.000202,-0.009929,0.079587,0.011788,0.032408,-0.048584,-0.998293,0.027360,0.006363,-0.005201,-5.327254,-14.295969,-43.735535,,,,,,,5
1508446600.254408,0.034428,0.048273,0.000317,-0.005636,0.043461,0.005400,0.034381,-0.048255,-0.998243,0.038617,0.012046,0.006742,-5.166764,-14.269988,-43.763268,,,,,,,5
1508446600.274404,0.034919,0.048327,0.000339,0.009295,0.015810,-0.000886,0.034871,-0.048308,-0.998224,0.039485,0.010115,0.006784,-5.166764,-14.269988,-43.763268,,,,,,,5
1508446600.294416,0.035944,0.048316,0.000168,0.005058,-0.002269,-0.008388,0.035894,-0.048297,-0.998188,0.041697,0.003131,-0.002789,-5.089611,-14.270120,-43.772263,,,,,,,5
1508446600.314439,0.035760,0.048036,-0.000052,-0.024742,-0.012893,-0.012901,0.035711,-0.048018,-0.998208,0.049921,0.001509,-0.002326,-5.091082,-14.269302,-43.772362,,,,,,,5
1508446600.334445,0.035158,0.047405,-0.000290,-0.031115,-0.043697,-0.012977,0.035111,-0.047387,-0.998259,0.056091,0.004983,-0.004182,-5.097872,-14.254682,-43.776333,,,,,,,5
1508446600.354437,0.034669,0.046823,-0.000597,-0.010854,-0.103197,-0.013919,0.034624,-0.046806,-0.998304,0.039229,0.005561,-0.011950,-5.162633,-14.220982,-43.779701,,,,,,,5
1508446600.374466,0.032513,0.046644,-0.000883,0.012596,-0.163752,-0.011642,0.032472,-0.046627,-0.998384,0.005476,0.003918,-0.004499,-5.196759,-14.207478,-43.780048,,,,,,,5
1508446600.394479,0.028884,0.046950,-0.001165,0.022193,-0.178644,-0.015833,0.028848,-0.046933,-0.998481,-0.000940,0.003613,-0.000039,-5.262928,-14.209848,-43.771374,,,,,,,5
1508446600.414465,0.025504,0.047309,-0.001568,0.013673,-0.161648,-0.022287,0.025473,-0.047291,-0.998556,-0.028006,0.003346,0.001089,-5.490966,-14.235515,-43.735008,,,,,,,5
1508446600.434477,0.022843,0.047340,-0.002123,-0.004439,-0.113860,-0.029853,0.022816,-0.047323,-0.998619,-0.029697,0.003484,0.001167,-5.585235,-14.243753,-43.720383,,,,,,,5
1508446600.454497,0.021323,0.047269,-0.002746,0.001920,-0.055434,-0.029756,0.021297,-0.047252,-0.998656,-0.037548,0.004191,0.009658,-5.670052,-14.243557,-43.709534,,,,,,,5
1508446600.474514,0.020919,0.047490,-0.003168,0.014643,-0.000147,-0.014703,0.020894,-0.047472,-0.998654,-0.038228,0.000078,0.010403,-5.706781,-14.253981,-43.701355,,,,,,,5
1508446600.494510,0.021649,0.047565,-0.003370,-0.006689,0.057249,-0.009512,0.021623,-0.047547,-0.998635,-0.039262,0.000398,0.009179,-5.705765,-14.257601,-43.700306,,,,,,,5
1508446600.514528,0.023451,0.047148,-0.003665,-0.026924,0.108210,-0.021353,0.023423,-0.047130,-0.998614,-0.040055,0.004573,0.005420,-5.636154,-14.255984,-43.709862,,,,,,,5
1508446600.534553,0.026033,0.046655,-0.004165,-0.019477,0.138996,-0.026592,0.026001,-0.046638,-0.998573,-0.034394,0.004081,0.012810,-5.502109,-14.231319,-43.734970,,,,,,,5
1508446600.554562,0.028599,0.046564,-0.004619,-0.005650,0.153875,-0.022207,0.028564,-0.046547,-0.998508,-0.015151,-0.003349,0.009677,-5.469808,-14.227789,-43.740173,,,,,,,5
1508446600.574572,0.031595,0.047123,-0.004911,-0.005667,0.136928,-0.011583,0.031555,-0.047106,-0.998391,0.000870,-0.018293,0.002023,-5.317493,-14.226285,-43.759441,,,,,,,5
1508446600.594571,0.034361,0.047624,-0.005008,-0.017387,0.119975,-0.001045,0.034315,-0.047606,-0.998277,0.007708,-0.022783,0.003037,-5.121905,-14.279368,-43.765480,,,,,,,5
1508446600.614592,0.036733,0.047165,-0.004976,-0.022713,0.117861,0.001039,0.036684,-0.047148,-0.998214,0.015775,-0.017961,0.003921,-5.095565,-14.275589,-43.769787,,,,,,,5
1508446600.634587,0.038931,0.046744,-0.004945,-0.020576,0.105108,-0.000018,0.038878,-0.046727,-0.998151,0.016664,-0.009517,0.001920,-4.966883,-14.250587,-43.792721,,,,,,,5
1508446600.654608,0.041571,0.046512,-0.005015,-0.028014,0.095535,-0.005410,0.041514,-0.046495,-0.998056,0.020742,-0.006636,-0.000205,-4.800430,-14.233182,-43.816936,,,,,,,5
1508446600.674607,0.043383,0.045832,-0.005176,-0.038648,0.087023,-0.010828,0.043324,-0.045816,-0.998010,0.020351,-0.006613,0.003717,-4.737627,-14.214136,-43.829952,,,,,,,5
1508446600.694611,0.044912,0.044920,-0.005413,-0.048213,0.067891,-0.015180,0.044851,-0.044905,-0.997984,0.018442,0.001479,0.003691,-4.678308,-14.189710,-43.844238,,,,,,,5
1508446600.714636,0.045849,0.044009,-0.005739,-0.040749,0.030704,-0.019419,0.045788,-0.043995,-0.997982,0.016681,0.020100,0.000774,-4.589281,-14.131310,-43.872501,,,,,,,5
1508446600.734654,0.046738,0.042553,-0.006097,-0.016248,-0.016030,-0.013928,0.046679,-0.042541,-0.998004,0.020460,0.022292,0.001742,-4.573175,-14.105656,-43.882435,,,,,,,5
1508446600.754638,0.046902,0.041732,-0.006315,-0.002405,-0.045757,-0.007448,0.046844,-0.041720,-0.998031,0.022049,0.017276,-0.000245,-4.541405,-14.059749,-43.900463,,,,,,,5
1508446600.774666,0.047474,0.041402,-0.006539,-0.003459,-0.063814,-0.008535,0.047415,-0.041390,-0.998017,0.021249,0.001992,0.001756,-4.521349,-14.017987,-43.915882,,,,,,,5
1508446600.794665,0.046368,0.041323,-0.006706,-0.001320,-0.082936,-0.008532,0.046312,-0.041312,-0.998072,0.011107,-0.000238,0.000682,-4.528425,-14.012410,-43.916935,,,,,,,5
1508446600.814698,0.044742,0.041638,-0.006818,0.004002,-0.097792,-0.003176,0.044688,-0.041626,-0.998133,0.000783,-0.006225,0.001536,-4.563557,-14.011818,-43.913486,,,,,,,5
1508446600.834692,0.042393,0.042674,-0.006809,-0.010914,-0.079718,-0.001156,0.042342,-0.042661,-0.998192,-0.008284,-0.017398,-0.001686,-4.687809,-14.048015,-43.888828,,,,,,,5
1508446600.854709,0.039188,0.043394,-0.006691,-0.039679,-0.044645,0.000764,0.039141,-0.043380,-0.998292,-0.024508,-0.005784,-0.001006,-4.816630,-14.103434,-43.857094,,,,,,,5
1508446600.874723,0.037919,0.042462,-0.006601,-0.048216,-0.003216,-0.000340,0.037875,-0.042449,-0.998380,-0.028308,-0.000962,0.002439,-4.816630,-14.103434,-43.857094,,,,,,,5
1508446600.894717,0.038188,0.041704,-0.006589,-0.030155,0.021186,-0.002329,0.038145,-0.041692,-0.998402,-0.022780,0.003804,0.008168,-4.916779,-14.051050,-43.862797,,,,,,,5
1508446600.914746,0.038293,0.041209,-0.006631,-0.012052,0.022231,-0.004308,0.038252,-0.041198,-0.998419,-0.009214,0.001952,0.000616,-4.905360,-14.009022,-43.877514,,,,,,,5
1508446600.934736,0.038483,0.041080,-0.006766,-0.000331,0.020085,-0.008472,0.038441,-0.041068,-0.998417,-0.007573,0.000358,0.001880,-4.895158,-14.004436,-43.880116,,,,,,,5
1508446600.954750,0.038343,0.041288,-0.006948,0.014576,0.033872,-0.012597,0.038301,-0.041276,-0.998413,-0.009310,-0.001067,-0.006988,-4.890326,-14.007467,-43.879688,,,,,,,5
1508446600.974777,0.038689,0.041767,-0.007273,0.024160,0.049782,-0.017830,0.038646,-0.041754,-0.998380,-0.019130,-0.001336,-0.009356,-4.874298,-14.021968,-43.876839,,,,,,,5
1508446600.994759,0.038787,0.042000,-0.007588,-0.002464,0.064661,-0.019103,0.038743,-0.041987,-0.998367,-0.038789,-0.001882,-0.005768,-4.862636,-14.039831,-43.872425,,,,,,,5
1508446601.014777,0.037912,0.040986,-0.007887,-0.020567,0.081645,-0.023498,0.037871,-0.040974,-0.998442,-0.042327,0.022481,0.011321,-4.868183,-14.037119,-43.872673,,,,,,,5
1508446601.034808,0.039912,0.040825,-0.008563,0.006070,0.111310,-0.042421,0.039868,-0.040814,-0.998371,-0.037763,0.031048,0.016407,-4.857904,-13.999926,-43.885696,,,,,,,5
1508446601.054810,0.042218,0.040959,-0.009670,0.043313,0.137767,-0.060226,0.042170,-0.040947,-0.998271,-0.013438,0.015664,0.020717,-4.775989,-14.006963,-43.892445,,,,,,,5
1508446601.074826,0.045222,0.041809,-0.010909,0.039044,0.151588,-0.058121,0.045167,-0.041797,-0.998105,0.038741,-0.031109,0.020611,-4.581653,-14.050778,-43.899155,,,,,,,5
1508446601.094838,0.048390,0.042142,-0.011954,0.006014,0.156957,-0.046677,0.048328,-0.042130,-0.997943,0.052944,-0.051879,0.012744,-4.468469,-14.075111,-43.903023,,,,,,,5
1508446601.114823,0.051481,0.041839,-0.012632,-0.023827,0.146416,-0.027766,0.051413,-0.041827,-0.997801,0.057154,-0.043530,0.001158,-4.355035,-14.082609,-43.912018,,,,,,,5
1508446601.134834,0.053977,0.040978,-0.012928,-0.050460,0.108253,-0.008849,0.053905,-0.040967,-0.997705,0.059574,-0.010425,-0.012777,-4.158945,-14.048446,-43.941959,,,,,,,5
1508446601.154849,0.055531,0.039833,-0.012745,-0.058992,0.056285,0.014465,0.055458,-0.039823,-0.997667,0.061592,0.009778,-0.013747,-4.078938,-13.999607,-43.965038,,,,,,,5
1508446601.174859,0.055800,0.038778,-0.012294,-0.048323,-0.013808,0.021954,0.055729,-0.038768,-0.997693,0.064480,0.024333,-0.010501,-4.059855,-13.973261,-43.975189,,,,,,,5
1508446601.194863,0.054260,0.038034,-0.011908,-0.030192,-0.121161,0.013480,0.054194,-0.038025,-0.997806,0.063238,0.040832,-0.014767,-4.104712,-13.909218,-43.991325,,,,,,,5
1508446601.214877,0.050224,0.037668,-0.011746,-0.013072,-0.247628,0.001813,0.050167,-0.037659,-0.998031,0.048023,0.027436,-0.013993,-4.132310,-13.902296,-43.990925,,,,,,,5
1508446601.234894,0.044270,0.037379,-0.011900,-0.017267,-0.319920,-0.014247,0.044225,-0.037370,-0.998322,0.024943,0.007325,-0.002257,-4.434793,-13.879945,-43.968525,,,,,,,5
1508446601.254919,0.037450,0.036999,-0.012346,-0.017232,-0.348644,-0.025981,0.037415,-0.036991,-0.998615,0.010269,-0.003735,0.000919,-4.790483,-13.863075,-43.936520,,,,,,,5
1508446601.274930,0.030614,0.036686,-0.013165,-0.011868,-0.335991,-0.052545,0.030589,-0.036678,-0.998859,-0.006663,-0.005543,0.003665,-4.865297,-13.859917,-43.929295,,,,,,,5
1508446601.294923,0.024726,0.036629,-0.014346,0.005149,-0.268040,-0.060872,0.024707,-0.036621,-0.999024,-0.024662,-0.007630,0.018692,-5.222419,-13.851309,-43.890991,,,,,,,5
1508446601.314941,0.020583,0.036784,-0.015573,0.007232,-0.173496,-0.061848,0.020567,-0.036775,-0.999112,-0.040389,-0.017897,0.020688,-5.532214,-13.868102,-43.847710,,,,,,,5
1508446601.334961,0.018395,0.036755,-0.016800,-0.006657,-0.073633,-0.062951,0.018381,-0.036747,-0.999156,-0.039286,-0.024090,0.021052,-5.617548,-13.876334,-43.834255,,,,,,,5
1508446601.354950,0.018014,0.036431,-0.018205,-0.017326,0.007072,-0.073626,0.018001,-0.036423,-0.999174,-0.039119,-0.024429,0.016875,-5.653423,-13.877577,-43.829247,,,,,,,5
1508446601.374976,0.018931,0.036046,-0.019650,-0.020550,0.062319,-0.072546,0.018917,-0.036039,-0.999171,-0.032391,-0.016482,0.007899,-5.606905,-13.867903,-43.838284,,,,,,,5
1508446601.394992,0.020742,0.035477,-0.021162,-0.033337,0.103735,-0.079009,0.020727,-0.035470,-0.999156,-0.029470,-0.015723,0.008220,-5.543602,-13.859372,-43.849033,,,,,,,5
1508446601.415005,0.023256,0.034636,-0.022780,-0.041862,0.130287,-0.082253,0.023240,-0.034629,-0.999130,-0.024934,-0.007485,-0.005280,-5.459841,-13.844191,-43.864338,,,,,,,5
1508446601.435004,0.024978,0.034057,-0.024385,-0.032336,0.128134,-0.080082,0.024961,-0.034050,-0.999108,-0.020017,-0.005073,-0.004294,-5.255310,-13.803540,-43.902111,,,,,,,5
1508446601.455024,0.026935,0.033846,-0.025819,-0.012109,0.109027,-0.072476,0.026916,-0.033839,-0.999065,-0.008545,-0.004155,0.005534,-5.172536,-13.800270,-43.912971,,,,,,,5
1508446601.475013,0.029008,0.034015,-0.027265,0.000673,0.101584,-0.072376,0.028987,-0.034008,-0.999001,-0.002238,-0.006046,0.005013,-5.132777,-13.808370,-43.915089,,,,,,,5
1508446601.495017,0.031307,0.034378,-0.028671,-0.002529,0.107972,-0.069204,0.031283,-0.034371,-0.998919,0.003339,-0.008902,-0.003659,-4.969709,-13.830764,-43.926796,,,,,,,5
1508446601.515048,0.034215,0.034966,-0.029931,-0.011079,0.134577,-0.057542,0.034187,-0.034958,-0.998804,0.003410,-0.008117,0.003534,-4.933560,-13.849813,-43.924870,,,,,,,5
1508446601.535065,0.037228,0.034906,-0.030766,-0.018578,0.145286,-0.034172,0.037197,-0.034898,-0.998698,-0.000149,-0.006941,0.004619,-4.756092,-13.881724,-43.934368,,,,,,,5
1508446601.555071,0.040543,0.034500,-0.031143,-0.018621,0.146436,-0.009682,0.040508,-0.034493,-0.998584,0.008351,0.003090,0.006686,-4.530136,-13.874537,-43.960514,,,,,,,5
1508446601.575085,0.044465,0.033850,-0.031317,-0.015432,0.147507,-0.007526,0.044425,-0.033844,-0.998439,0.032998,0.011917,0.009349,-4.497263,-13.870660,-43.965111,,,,,,,5
1508446601.595093,0.046958,0.033633,-0.031404,-0.007967,0.105028,-0.002172,0.046914,-0.033627,-0.998333,0.039054,0.014630,0.005016,-4.290421,-13.840567,-43.995255,,,,,,,5
1508446601.615088,0.048240,0.033599,-0.031232,0.000530,0.037068,0.015931,0.048194,-0.033592,-0.998273,0.046120,0.013100,-0.005282,-4.164073,-13.832014,-44.010082,,,,,,,5
1508446601.635105,0.048169,0.033767,-0.030734,0.011187,-0.024512,0.027685,0.048123,-0.033760,-0.998271,0.042515,0.006035,0.001048,-4.154607,-13.832724,-44.010754,,,,,,,5
1508446601.655121,0.048628,0.034125,-0.030307,0.019735,-0.065962,0.022400,0.048580,-0.034119,-0.998236,0.034610,0.000671,0.004782,-4.121063,-13.841557,-44.011131,,,,,,,5
1508446601.675127,0.046929,0.034479,-0.029956,0.012307,-0.092538,0.015930,0.046884,-0.034472,-0.998305,0.020193,-0.007108,0.001266,-4.169744,-13.853197,-44.002880,,,,,,,5
1508446601.695147,0.045506,0.035494,-0.029759,0.000608,-0.092553,0.009445,0.045461,-0.035487,-0.998336,-0.005376,-0.007208,0.005599,-4.265295,-13.892249,-43.981407,,,,,,,5
1508446601.715136,0.043500,0.035614,-0.029533,-0.010048,-0.076610,0.010434,0.043459,-0.035606,-0.998420,-0.007021,-0.005913,0.008644,-4.337399,-13.902730,-43.971043,,,,,,,5
1508446601.735133,0.041795,0.035728,-0.029313,-0.004733,-0.055370,0.009430,0.041757,-0.035720,-0.998489,-0.010018,-0.004533,0.008987,-4.452628,-13.914129,-43.955914,,,,,,,5
1508446601.755177,0.040865,0.035786,-0.029232,0.006988,-0.042657,0.001018,0.040827,-0.035778,-0.998525,-0.007060,-0.004658,0.007040,-4.488115,-13.912622,-43.952785,,,,,,,5
1508446601.775177,0.039834,0.036211,-0.029339,0.018712,-0.047020,-0.008471,0.039797,-0.036203,-0.998552,-0.003848,-0.003729,-0.002303,-4.516695,-13.917163,-43.948418,,,,,,,5
1508446601.795199,0.038762,0.036674,-0.029532,0.026169,-0.058705,-0.007354,0.038726,-0.036666,-0.998577,-0.016586,-0.003862,-0.002415,-4.584205,-13.949710,-43.931107,,,,,,,5
1508446601.815208,0.037601,0.037313,-0.029596,0.034667,-0.053364,0.002303,0.037566,-0.037304,-0.998598,-0.015212,-0.002964,0.003557,-4.622435,-13.969213,-43.920902,,,,,,,5
1508446601.835191,0.036371,0.038260,-0.029422,0.047410,-0.021464,0.013080,0.036337,-0.038251,-0.998607,-0.009420,-0.002536,0.006603,-4.658011,-13.991923,-43.909912,,,,,,,5
1508446601.855231,0.036166,0.039588,-0.029005,0.051627,0.017884,0.025921,0.036130,-0.039578,-0.998563,-0.000516,-0.001789,0.008237,-4.720409,-14.065124,-43.879852,,,,,,,5
1508446601.875239,0.036877,0.040493,-0.028368,0.031366,0.046611,0.035359,0.036838,-0.040482,-0.998501,-0.000842,-0.001022,0.011517,-4.709824,-14.098715,-43.870209,,,,,,,5
1508446601.895251,0.038044,0.040806,-0.027614,0.003670,0.058326,0.039398,0.038003,-0.040794,-0.998445,0.006354,0.001854,0.010865,-4.673827,-14.123083,-43.866219,,,,,,,5
1508446601.915261,0.039351,0.040514,-0.026846,-0.000580,0.046636,0.037224,0.039308,-0.040503,-0.998406,0.001753,0.004309,0.002999,-4.636515,-14.115616,-43.872581,,,,,,,5
1508446601.935257,0.040046,0.040239,-0.026187,0.002636,0.018930,0.030857,0.040003,-0.040229,-0.998389,0.001333,0.003028,-0.001794,-4.585338,-14.090437,-43.886055,,,,,,,5
1508446601.955281,0.040216,0.040273,-0.025680,0.003729,-0.007658,0.022328,0.040173,-0.040262,-0.998381,0.004963,0.001657,-0.000001,-4.582701,-14.090204,-43.886406,,,,,,,5
1508446601.975293,0.039952,0.040150,-0.025314,0.006942,-0.028924,0.017015,0.039909,-0.040140,-0.998397,0.001366,0.004449,-0.006242,-4.592055,-14.086062,-43.886757,,,,,,,5
1508446601.995300,0.038520,0.040084,-0.024981,0.016535,-0.048056,0.016015,0.038480,-0.040073,-0.998456,-0.012616,0.003544,-0.003376,-4.636157,-14.077407,-43.884895,,,,,,,5
1508446602.015312,0.037533,0.040627,-0.024754,0.029323,-0.044901,0.008669,0.037493,-0.040615,-0.998471,-0.011630,0.004086,-0.003360,-4.689312,-14.085996,-43.876492,,,,,,,5
1508446602.035323,0.035826,0.041066,-0.024719,0.018688,-0.017330,-0.006304,0.035788,-0.041055,-0.998516,-0.016654,-0.000022,0.007137,-4.746322,-14.101107,-43.865509,,,,,,,5
1508446602.055331,0.035214,0.041541,-0.025028,0.010177,0.021927,-0.021251,0.035177,-0.041529,-0.998518,-0.002248,-0.005011,0.010084,-4.814230,-14.130153,-43.848759,,,,,,,5
1508446602.075327,0.036241,0.042177,-0.025512,0.015484,0.061227,-0.022242,0.036201,-0.042164,-0.998455,0.000832,-0.012813,0.011989,-4.790211,-14.146340,-43.846169,,,,,,,5
1508446602.095343,0.039134,0.044319,-0.025940,0.010150,0.090970,-0.015831,0.039085,-0.044305,-0.998253,0.019020,-0.026450,0.007134,-4.672975,-14.232672,-43.830875,,,,,,,5
1508446602.115362,0.041667,0.045011,-0.026195,-0.001576,0.094195,-0.007408,0.041613,-0.044995,-0.998120,0.020323,-0.024478,0.004376,-4.583601,-14.269519,-43.828335,,,,,,,5
1508446602.135346,0.043712,0.045418,-0.026226,-0.009029,0.058118,0.003151,0.043653,-0.045402,-0.998015,0.020678,-0.014626,0.000990,-4.495628,-14.297591,-43.828297,,,,,,,5
1508446602.155371,0.044995,0.045417,-0.026103,-0.006890,0.015652,0.010590,0.044933,-0.045401,-0.997958,-0.001766,0.002692,-0.007963,-4.383079,-14.315911,-43.833717,,,,,,,5
1508446602.175393,0.044515,0.045509,-0.025691,0.026108,-0.028923,0.027864,0.044455,-0.045493,-0.997975,-0.007055,0.004356,-0.018566,-4.373491,-14.315238,-43.834896,,,,,,,5
1508446602.195403,0.042893,0.046489,-0.024930,0.072943,-0.073495,0.048447,0.042834,-0.046473,-0.998001,-0.027560,0.008387,-0.006592,-4.441519,-14.326883,-43.824249,,,,,,,5
1508446602.215414,0.040289,0.048104,-0.023643,0.094188,-0.072349,0.076307,0.040231,-0.048085,-0.998033,-0.051446,0.014623,0.036348,-4.587167,-14.398263,-43.785839,,,,,,,5
1508446602.235416,0.039424,0.050236,-0.021855,0.110082,-0.014893,0.104165,0.039364,-0.050215,-0.997962,-0.052761,0.018186,0.039558,-4.644988,-14.456226,-43.760632,,,,,,,5
1508446602.255433,0.038621,0.052591,-0.019438,0.137709,0.036138,0.136459,0.038558,-0.052567,-0.997873,-0.040969,0.011749,0.003885,-4.730860,-14.533458,-43.725842,,,,,,,5
1508446602.275445,0.039044,0.055950,-0.016429,0.177060,0.016042,0.167646,0.038973,-0.055920,-0.997674,-0.047090,0.009091,-0.015616,-4.747108,-14.677548,-43.675922,,,,,,,5
1508446602.295444,0.038988,0.059767,-0.012841,0.182323,0.024650,0.199638,0.038909,-0.059732,-0.997456,-0.058440,0.016366,0.029499,-4.781946,-14.784300,-43.636097,,,,,,,5
1508446602.315465,0.039131,0.062918,-0.008287,0.167253,0.186291,0.246485,0.039043,-0.062877,-0.997257,-0.068996,0.021098,0.028950,-4.889944,-14.899651,-43.584862,,,,,,,5
1508446602.335368,0.045649,0.066071,-0.003004,0.129795,0.449889,0.280447,0.045533,-0.066023,-0.996779,-0.116334,0.038954,0.030241,-4.714783,-15.041897,-43.555294,,,,,,,5
1508446602.355371,0.056736,0.067852,0.002707,0.077478,0.727193,0.283419,0.056575,-0.067800,-0.996094,-0.073085,0.033361,0.011734,-4.362456,-15.091968,-43.574680,,,,,,,5
1508446602.375388,0.072745,0.069228,0.007846,0.041292,0.846043,0.240621,0.072506,-0.069173,-0.994966,-0.053997,0.028066,-0.002150,-3.919997,-15.117540,-43.607853,,,,,,,5
1508446602.395399,0.089146,0.070161,0.011926,0.030743,0.812953,0.193660,0.088809,-0.070103,-0.993579,0.006040,0.015507,-0.011060,-3.423364,-15.131790,-43.644711,,,,,,,5
1508446602.415409,0.104471,0.071102,0.015909,0.025438,0.763046,0.216039,0.104018,-0.071042,-0.992035,0.003923,0.009076,-0.014648,-2.454481,-15.151194,-43.703182,,,,,,,5
1508446602.435421,0.118176,0.072305,0.020844,0.041365,0.658061,0.271458,0.117593,-0.072242,-0.990431,-0.003869,0.008003,-0.010714,-2.158792,-15.157644,-43.716553,,,,,,,5
1508446602.455404,0.129231,0.074417,0.026544,0.090355,0.513679,0.305825,0.128515,-0.074348,-0.988917,0.005274,0.007774,0.013712,-1.442696,-15.206467,-43.729092,,,,,,,5
1508446602.475440,0.137627,0.077590,0.032441,0.131909,0.422331,0.315682,0.136780,-0.077512,-0.987564,0.003646,0.010877,0.014816,-1.200025,-15.267573,-43.715130,,,,,,,5
1508446602.495439,0.145854,0.081511,0.038466,0.162751,0.443611,0.329794,0.144855,-0.081421,-0.986097,0.000653,-0.001755,0.008787,-0.924711,-15.379642,-43.682526,,,,,,,5
1508446602.515461,0.154415,0.085718,0.044460,0.157437,0.465882,0.318055,0.153237,-0.085613,-0.984474,-0.013863,-0.022297,0.010978,-0.565038,-15.551199,-43.627884,,,,,,,5
1508446602.535471,0.164301,0.088981,0.049837,0.092516,0.559251,0.275000,0.162916,-0.088863,-0.982630,-0.019209,-0.026356,0.027170,-0.320345,-15.642658,-43.597660,,,,,,,5
1508446602.555478,0.176817,0.091068,0.054878,0.049873,0.695222,0.266233,0.175168,-0.090942,-0.980329,-0.028882,-0.028580,0.032163,0.098475,-15.716386,-43.572205,,,,,,,5
1508446602.575492,0.190380,0.093314,0.059923,0.076494,0.693080,0.265386,0.188409,-0.093178,-0.977660,-0.022195,-0.013328,0.026992,0.750893,-15.781196,-43.542408,,,,,,,5
1508446602.595502,0.204748,0.095898,0.064736,0.071131,0.790799,0.260092,0.202387,-0.095751,-0.974613,-0.033975,-0.005217,0.021061,1.149332,-15.837896,-43.513123,,,,,,,5
1508446602.615512,0.221684,0.097854,0.069912,0.027382,0.924731,0.275803,0.218821,-0.097698,-0.970862,-0.057322,0.004802,0.008536,1.762105,-15.900863,-43.469631,,,,,,,5
1508446602.635523,0.240164,0.099547,0.074818,0.029565,0.951155,0.237510,0.236684,-0.099383,-0.966490,0.003626,0.006426,0.017714,2.668712,-15.945849,-43.406906,,,,,,,5
1508446602.655516,0.258875,0.101119,0.078676,0.022194,0.954178,0.189538,0.254685,-0.100947,-0.961741,0.084533,-0.013830,0.009791,3.234941,-15.976114,-43.357243,,,,,,,5
1508446602.675543,0.275954,0.102297,0.081890,0.013804,0.796860,0.161667,0.271041,-0.102119,-0.957136,0.132463,-0.000725,-0.009966,3.987590,-16.007320,-43.282978,,,,,,,5
1508446602.695554,0.289003,0.103690,0.084769,0.038395,0.596063,0.160653,0.283466,-0.103504,-0.953380,0.140790,-0.008220,-0.027226,4.728131,-16.045443,-43.194214,,,,,,,5
1508446602.715564,0.297832,0.105613,0.088080,0.040566,0.367806,0.202024,0.291813,-0.105416,-0.950648,0.133220,-0.034552,-0.049382,3.844240,-16.316463,-43.049774,,,,,,,5
1508446602.735574,0.301408,0.106585,0.091882,-0.044461,0.107536,0.189413,0.295181,-0.106384,-0.949500,0.123749,-0.039826,-0.031991,3.987755,-16.342823,-43.026718,,,,,,,5
1508446602.755585,0.301869,0.106152,0.096158,-0.097677,0.027925,0.199561,0.295631,-0.105953,-0.949408,0.090431,-0.028752,0.015525,4.014460,-16.326237,-43.030529,,,,,,,5
1508446602.775594,0.302269,0.105680,0.100413,-0.067864,0.053380,0.192373,0.296027,-0.105483,-0.949337,0.026483,-0.003831,0.036877,3.967097,-16.232794,-43.070255,,,,,,,5
1508446602.795578,0.303319,0.106288,0.104094,-0.002911,0.089422,0.180159,0.297004,-0.106088,-0.948965,0.016183,-0.008612,0.036336,3.960124,-16.214998,-43.077602,,,,,,,5
1508446602.815603,0.305171,0.107333,0.107027,0.005670,0.111578,0.137657,0.298728,-0.107127,-0.948307,0.035318,-0.018529,0.039264,3.995539,-16.228212,-43.069351,,,,,,,5
1508446602.835625,0.307861,0.107922,0.109283,-0.015588,0.176254,0.098135,0.301258,-0.107712,-0.947439,0.050503,-0.008392,0.046210,4.042467,-16.237686,-43.061401,,,,,,,5
1508446602.855637,0.312364,0.107853,0.110552,-0.017648,0.261018,0.034298,0.305524,-0.107644,-0.946080,0.053744,0.027322,0.060308,4.176069,-16.229334,-43.051800,,,,,,,5
1508446602.875646,0.318168,0.108204,0.110565,0.042028,0.295908,-0.004579,0.310997,-0.107993,-0.944255,0.066856,0.037604,0.051448,4.461406,-16.227913,-43.023705,,,,,,,5
1508446602.895648,0.323618,0.109403,0.109643,0.079377,0.240536,-0.036255,0.316098,-0.109185,-0.942423,0.087070,0.027810,0.036249,4.650405,-16.263800,-42.990124,,,,,,,5
1508446602.915666,0.327249,0.110321,0.108150,0.053935,0.129955,-0.068491,0.319485,-0.110097,-0.941174,0.124515,0.000753,0.016796,4.858045,-16.325966,-42.943573,,,,,,,5
1508446602.935676,0.328299,0.110507,0.106490,0.028469,-0.011356,-0.078391,0.320467,-0.110282,-0.940818,0.111189,-0.016061,-0.000298,4.988358,-16.367004,-42.913002,,,,,,,5
1508446602.955676,0.325819,0.110614,0.104503,0.046700,-0.209023,-0.096490,0.318129,-0.110388,-0.941599,0.093401,-0.017267,-0.000570,4.970087,-16.380186,-42.910095,,,,,,,5
1508446602.975697,0.320070,0.111247,0.102396,0.068028,-0.337512,-0.078311,0.312688,-0.111017,-0.943346,0.062557,-0.035635,-0.007093,4.806041,-16.414566,-42.915642,,,,,,,5
1508446602.995707,0.313215,0.111620,0.100916,0.016932,-0.344926,-0.058358,0.306202,-0.111388,-0.945427,0.024060,-0.033341,-0.006538,4.468158,-16.466110,-42.932400,,,,,,,5
1508446603.015718,0.307308,0.110679,0.100061,-0.055517,-0.264138,-0.054636,0.300643,-0.110454,-0.947319,-0.001525,-0.009603,0.019539,4.269104,-16.459616,-42.955143,,,,,,,5
1508446603.035727,0.303402,0.109088,0.099305,-0.060878,-0.164301,-0.062058,0.296993,-0.108872,-0.948653,-0.034511,0.012863,0.039336,4.072672,-16.405796,-42.994781,,,,,,,5
1508446603.055740,0.301163,0.108110,0.098253,-0.009799,-0.094227,-0.065842,0.294900,-0.107900,-0.949417,-0.047921,0.014577,0.026534,3.981347,-16.363699,-43.019375,,,,,,,5
1508446603.075748,0.299874,0.108011,0.096969,0.022119,-0.060233,-0.061294,0.293678,-0.107801,-0.949806,-0.027259,0.010633,-0.001915,3.893975,-16.347862,-43.033390,,,,,,,5
1508446603.095761,0.299159,0.107956,0.095773,0.009317,-0.029400,-0.056053,0.293001,-0.107747,-0.950022,-0.021745,0.013554,-0.002417,3.874038,-16.357296,-43.031605,,,,,,,5
1508446603.115743,0.298982,0.107676,0.094768,-0.001353,-0.006001,-0.049735,0.292842,-0.107468,-0.950102,-0.014522,0.019653,0.002577,3.868041,-16.359848,-43.031174,,,,,,,5
1508446603.135780,0.299192,0.107463,0.093877,0.003946,0.013149,-0.041158,0.293048,-0.107256,-0.950063,0.005613,0.001498,-0.007716,3.886864,-16.355839,-43.031002,,,,,,,5
1508446603.155777,0.299534,0.107151,0.093245,-0.014172,0.007887,-0.029600,0.293382,-0.106946,-0.949994,0.016066,-0.007556,-0.013568,3.899776,-16.355286,-43.030041,,,,,,,5
1508446603.175802,0.299298,0.106291,0.093008,-0.054630,-0.026057,-0.021441,0.293185,-0.106091,-0.950151,0.036939,-0.005909,-0.003813,3.916620,-16.326252,-43.039539,,,,,,,5
1508446603.195811,0.298034,0.104665,0.093050,-0.084407,-0.092973,-0.022803,0.292034,-0.104474,-0.950685,0.038136,0.007733,0.004655,3.897201,-16.281927,-43.058090,,,,,,,5
1508446603.215805,0.295027,0.103308,0.092984,-0.042838,-0.184350,-0.021464,0.289215,-0.103124,-0.951693,0.031128,0.027181,0.010623,3.814569,-16.211288,-43.092125,,,,,,,5
1508446603.235830,0.292068,0.101748,0.092702,0.021033,-0.265017,0.006685,0.286444,-0.101572,-0.952698,0.027124,0.008478,-0.007050,3.683743,-16.119852,-43.137787,,,,,,,5
1508446603.255842,0.286358,0.102502,0.093115,0.028433,-0.281895,0.041870,0.280978,-0.102323,-0.954244,0.007093,0.013425,-0.006297,3.500740,-16.138510,-43.146049,,,,,,,5
1508446603.275851,0.280891,0.102001,0.094027,-0.001432,-0.197942,0.045945,0.275771,-0.101824,-0.955815,-0.009216,0.016848,0.005406,3.227113,-16.121185,-43.173851,,,,,,,5
1508446603.295863,0.278491,0.102057,0.094716,-0.006783,-0.067347,0.024705,0.273475,-0.101879,-0.956469,-0.044120,0.016568,0.013552,3.032968,-16.120735,-43.188091,,,,,,,5
1508446603.315839,0.278579,0.101992,0.094908,-0.006794,0.041985,-0.000766,0.273561,-0.101815,-0.956451,-0.042817,0.007363,0.008041,3.005149,-16.117611,-43.191200,,,,,,,5
1508446603.335882,0.280392,0.101603,0.094680,-0.018504,0.112030,-0.022105,0.275306,-0.101428,-0.955991,-0.028861,0.001590,0.013379,3.052224,-16.109135,-43.191063,,,,,,,5
1508446603.355893,0.283025,0.101269,0.094283,-0.004670,0.135388,-0.024102,0.277831,-0.101096,-0.955296,-0.009123,-0.001596,0.014637,3.189320,-16.091545,-43.187714,,,,,,,5
1508446603.375903,0.285702,0.101236,0.093856,0.005973,0.125840,-0.018698,0.280389,-0.101063,-0.954551,0.003684,-0.000667,0.004997,3.282523,-16.090637,-43.181072,,,,,,,5
1508446603.395909,0.287796,0.101323,0.093538,0.011301,0.086561,-0.010166,0.282384,-0.101150,-0.953954,0.012905,-0.002213,0.001561,3.367739,-16.093788,-43.173332,,,,,,,5
1508446603.415924,0.288756,0.101610,0.093446,0.017698,0.024988,0.002617,0.283292,-0.101435,-0.953654,0.031512,-0.006124,-0.002675,3.470422,-16.108177,-43.159836,,,,,,,5
1508446603.435921,0.288767,0.101988,0.093343,0.019848,-0.009015,0.000480,0.283291,-0.101811,-0.953615,0.027973,-0.016490,0.003969,3.478430,-16.120413,-43.154617,,,,,,,5
1508446603.455944,0.290089,0.103640,0.093188,0.015582,-0.017477,0.008957,0.284503,-0.103455,-0.953077,0.025601,-0.020279,0.003538,3.472677,-16.133574,-43.150162,,,,,,,5
1508446603.475937,0.289526,0.103719,0.093405,-0.012102,-0.030195,0.012977,0.283964,-0.103533,-0.953229,0.012377,-0.000837,0.004056,3.520851,-16.203167,-43.120171,,,,,,,5
1508446603.495950,0.288909,0.103278,0.093785,-0.030196,-0.027014,0.008572,0.283389,-0.103095,-0.953448,-0.009799,0.023291,0.010851,3.477332,-16.186052,-43.130131,,,,,,,5
1508446603.515976,0.287790,0.101579,0.093980,0.002815,-0.011131,-0.000727,0.282371,-0.101405,-0.953931,-0.015632,0.025156,0.010434,3.465458,-16.174185,-43.135536,,,,,,,5
1508446603.535975,0.287842,0.102148,0.093789,0.041133,0.009038,0.000669,0.282404,-0.101971,-0.953861,-0.003656,0.000744,-0.000607,3.428007,-16.122906,-43.157722,,,,,,,5
1508446603.555987,0.288378,0.102992,0.093687,0.025140,0.028195,0.008005,0.282891,-0.102810,-0.953626,0.002326,-0.002384,-0.002520,3.436168,-16.149452,-43.147148,,,,,,,5
1508446603.576006,0.289341,0.103126,0.093737,-0.008928,0.047308,0.000285,0.283805,-0.102943,-0.953340,0.005059,0.006142,0.002656,3.471481,-16.175842,-43.134430,,,,,,,5
1508446603.596018,0.291411,0.101650,0.093536,-0.001464,0.050462,-0.009235,0.285821,-0.101475,-0.952895,0.004523,0.007526,0.009429,3.559555,-16.127310,-43.145424,,,,,,,5
1508446603.616001,0.293338,0.101709,0.093211,0.015571,0.036661,-0.004846,0.287655,-0.101533,-0.952337,0.011814,-0.001372,0.003530,3.641856,-16.111767,-43.144363,,,,,,,5
1508446603.636037,0.294678,0.102041,0.093121,0.008101,0.034580,0.005738,0.288921,-0.101864,-0.951918,0.012852,-0.001301,0.005141,3.683210,-16.121881,-43.137074,,,,,,,5
1508446603.656048,0.296813,0.102254,0.093053,0.008108,0.022896,0.004664,0.290946,-0.102076,-0.951279,0.017724,-0.000112,0.008972,3.783298,-16.139347,-43.121880,,,,,,,5
1508446603.676052,0.298046,0.102994,0.092954,0.013441,0.008024,0.004697,0.292096,-0.102812,-0.950847,0.007144,-0.007142,0.004130,3.858959,-16.156334,-43.108810,,,,,,,5
1508446603.696068,0.298379,0.103470,0.093037,0.001725,0.005917,0.007793,0.292399,-0.103286,-0.950702,0.005819,-0.007508,0.000888,3.875894,-16.177868,-43.099216,,,,,,,5
1508446603.716079,0.299090,0.103689,0.093205,-0.016377,0.006995,0.008710,0.293068,-0.103503,-0.950473,0.008232,-0.002621,0.003710,3.899148,-16.201178,-43.088364,,,,,,,5
1508446603.736072,0.299604,0.102906,0.093443,-0.020635,0.010178,0.006547,0.293581,-0.102725,-0.950399,-0.000749,0.009356,0.006734,3.930399,-16.188711,-43.090206,,,,,,,5
1508446603.756099,0.299403,0.101948,0.093531,0.007063,0.000576,-0.000685,0.293419,-0.101771,-0.950552,-0.008522,0.011622,0.007711,3.939107,-16.163511,-43.098869,,,,,,,5
1508446603.776110,0.299027,0.102490,0.093449,0.032617,-0.017478,0.004836,0.293045,-0.102311,-0.950609,0.000428,-0.005401,-0.000670,3.925355,-16.122759,-43.115387,,,,,,,5
1508446603.796114,0.299505,0.104284,0.093348,0.021967,-0.023824,0.010067,0.293444,-0.104095,-0.950292,0.012357,-0.013611,-0.001750,3.920828,-16.204691,-43.085072,,,,,,,5
1508446603.816132,0.299380,0.104793,0.093501,-0.004656,-0.015307,0.010919,0.293310,-0.104601,-0.950278,0.009104,-0.011976,0.003439,3.920828,-16.204691,-43.085072,,,,,,,5
1508446603.836142,0.299547,0.104584,0.093761,-0.022763,0.008063,0.007593,0.293475,-0.104393,-0.950250,-0.000537,0.004311,0.011254,3.918381,-16.250326,-43.068104,,,,,,,5
1508446603.856123,0.300036,0.103881,0.093987,-0.017442,0.018677,0.005515,0.293961,-0.103695,-0.950176,0.001861,0.007839,0.006389,3.936427,-16.215271,-43.079666,,,,,,,5
1508446603.876145,0.300459,0.103568,0.094086,-0.001464,0.006980,0.004573,0.294373,-0.103383,-0.950082,0.005249,0.008184,0.005258,3.948853,-16.200657,-43.084030,,,,,,,5
1508446603.896170,0.300671,0.103366,0.094089,0.013449,-0.008961,0.004684,0.294580,-0.103182,-0.950040,-0.000055,0.003557,0.003095,3.969467,-16.183310,-43.088654,,,,,,,5
1508446603.916162,0.300161,0.103767,0.094063,0.029421,-0.022768,0.008000,0.294083,-0.103581,-0.950151,-0.004716,0.004246,-0.001098,3.966367,-16.189617,-43.086571,,,,,,,5
1508446603.936191,0.299548,0.104390,0.094110,0.024086,-0.015315,0.012220,0.293482,-0.104201,-0.950269,-0.009165,-0.006837,-0.001208,3.929707,-16.212122,-43.081470,,,,,,,5
1508446603.956203,0.299052,0.105089,0.094354,0.002779,0.008070,0.013127,0.292989,-0.104895,-0.950344,-0.006231,-0.005197,0.000164,3.901737,-16.243008,-43.072372,,,,,,,5
1508446603.976213,0.299420,0.105096,0.094666,-0.013201,0.028263,0.013011,0.293339,-0.104903,-0.950236,-0.002994,-0.003252,0.001856,3.898865,-16.249731,-43.070099,,,,,,,5
1508446603.996222,0.300142,0.104743,0.094929,-0.017403,0.028168,0.006739,0.294035,-0.104551,-0.950059,0.002855,0.003324,0.005799,3.911540,-16.245663,-43.070484,,,,,,,5
1508446604.016233,0.300776,0.104188,0.095058,-0.006743,0.012218,0.003620,0.294655,-0.104000,-0.949928,0.002251,0.009532,0.008369,3.955237,-16.217785,-43.076996,,,,,,,5
1508446604.036243,0.300976,0.103786,0.095087,0.009235,-0.001604,0.002677,0.294858,-0.103600,-0.949908,-0.000210,0.009331,0.004794,3.972172,-16.195677,-43.083755,,,,,,,5
1508446604.056253,0.300913,0.104206,0.095041,0.022011,-0.002669,0.003846,0.294784,-0.104017,-0.949886,0.000306,-0.003664,0.002757,3.971421,-16.194246,-43.084362,,,,,,,5
1508446604.076265,0.301270,0.105144,0.095023,0.013482,0.015404,0.005919,0.295094,-0.104951,-0.949687,0.003535,-0.012908,0.002299,3.975394,-16.231113,-43.070122,,,,,,,5
1508446604.096271,0.301960,0.105478,0.095090,-0.007815,0.033464,0.002563,0.295739,-0.105283,-0.949449,0.004478,-0.010272,0.003664,3.990848,-16.249268,-43.061848,,,,,,,5
1508446604.116285,0.302963,0.105328,0.095190,-0.022718,0.035590,0.000312,0.296696,-0.105133,-0.949167,0.004970,-0.001037,0.005533,4.015868,-16.258331,-43.056099,,,,,,,5
1508446604.136295,0.303772,0.104519,0.095269,-0.015254,0.017520,-0.001770,0.297489,-0.104329,-0.949008,0.004543,0.010762,0.003634,4.078325,-16.232792,-43.059864,,,,,,,5
1508446604.156291,0.304041,0.104208,0.095213,0.009244,-0.004796,-0.000520,0.297754,-0.104019,-0.948959,0.002386,0.003571,-0.002946,4.102114,-16.208084,-43.066914,,,,,,,5
1508446604.176315,0.303520,0.104581,0.095076,0.026291,-0.029239,-0.000398,0.297248,-0.104390,-0.949077,-0.002433,0.001027,-0.004140,4.102114,-16.208084,-43.066914,,,,,,,5
1508446604.196310,0.302557,0.105532,0.095043,0.020960,-0.032401,0.005945,0.296305,-0.105336,-0.949267,-0.003763,-0.010906,-0.002225,4.047558,-16.248993,-43.056656,,,,,,,5
1508446604.216338,0.302087,0.106146,0.095121,0.000720,-0.013265,0.006857,0.295839,-0.105946,-0.949344,-0.000963,-0.007320,0.004337,4.014416,-16.281487,-43.047482,,,,,,,5
1508446604.236344,0.302184,0.105940,0.095283,-0.025905,0.014354,0.002400,0.295938,-0.105741,-0.949336,-0.000207,-0.003710,0.006374,4.008372,-16.287962,-43.045597,,,,,,,5
1508446604.256338,0.302544,0.105119,0.095426,-0.025900,0.026018,-0.003980,0.296305,-0.104925,-0.949312,-0.007456,0.009680,0.012179,4.027186,-16.254990,-43.056305,,,,,,,5
1508446604.276369,0.302893,0.104735,0.095440,0.001782,0.018575,-0.001628,0.296648,-0.104544,-0.949247,-0.008013,0.009512,0.009962,4.042856,-16.235523,-43.062180,,,,,,,5
1508446604.296378,0.303025,0.104872,0.095372,0.016694,-0.001609,0.000609,0.296770,-0.104680,-0.949194,0.002776,0.000950,-0.001138,4.052013,-16.228355,-43.064018,,,,,,,5
1508446604.316389,0.303165,0.105357,0.095288,0.009246,-0.020714,0.003728,0.296887,-0.105162,-0.949104,0.006717,-0.003892,-0.005257,4.059342,-16.249125,-43.055496,,,,,,,5
1508446604.336401,0.302773,0.105395,0.095356,-0.003530,-0.021770,0.003621,0.296514,-0.105200,-0.949217,0.003444,-0.000818,-0.001711,4.049021,-16.255867,-43.053928,,,,,,,5
1508446604.356409,0.302434,0.105397,0.095449,-0.003537,-0.012205,0.004693,0.296192,-0.105202,-0.949317,-0.000538,-0.001396,0.004218,4.036523,-16.254801,-43.055500,,,,,,,5
1508446604.376420,0.302425,0.105331,0.095564,-0.012018,0.008956,0.002648,0.296186,-0.105137,-0.949326,-0.003873,0.000522,0.005067,4.024603,-16.253216,-43.057217,,,,,,,5
1508446604.396406,0.302682,0.104986,0.095642,-0.014141,0.013188,-0.002690,0.296440,-0.104793,-0.949285,-0.000435,0.004650,0.005056,4.029655,-16.244408,-43.060070,,,,,,,5
1508446604.416439,0.302894,0.104748,0.095609,-0.001360,0.004684,-0.002591,0.296648,-0.104557,-0.949246,-0.001376,0.004474,0.006741,4.039701,-16.232687,-43.063545,,,,,,,5
1508446604.436450,0.303003,0.104823,0.095591,0.003960,-0.002740,0.001706,0.296750,-0.104632,-0.949206,0.003619,-0.002592,0.005297,4.047076,-16.225006,-43.065746,,,,,,,5
1508446604.456439,0.303008,0.104968,0.095659,-0.002432,-0.002728,0.003783,0.296750,-0.104776,-0.949190,0.002719,-0.004935,0.000597,4.050856,-16.234938,-43.061649,,,,,,,5
1508446604.476471,0.302973,0.104822,0.095715,-0.007748,0.000443,-0.001582,0.296722,-0.104630,-0.949215,-0.000442,0.000245,0.002895,4.049241,-16.233313,-43.062412,,,,,,,5
1508446604.496483,0.302773,0.104732,0.095735,0.005025,0.004689,-0.000409,0.296535,-0.104541,-0.949283,-0.008021,0.001040,0.000751,4.046810,-16.223587,-43.066307,,,,,,,5
1508446604.516492,0.302824,0.105320,0.095666,0.009287,-0.003807,0.000685,0.296565,-0.105126,-0.949209,0.004216,-0.009239,-0.002436,4.038753,-16.238602,-43.061405,,,,,,,5
1508446604.536482,0.302838,0.105445,0.095717,-0.008814,-0.009102,0.002661,0.296574,-0.105250,-0.949193,0.007855,-0.006658,-0.000545,4.038753,-16.238602,-43.061405,,,,,,,5
1508446604.556509,0.302791,0.105009,0.095843,-0.016250,-0.008136,0.001595,0.296543,-0.104816,-0.949250,-0.003864,0.007068,0.006272,4.041444,-16.244106,-43.059078,,,,,,,5
1508446604.576523,0.302670,0.104618,0.095927,-0.005603,-0.004958,0.000620,0.296441,-0.104428,-0.949325,-0.003167,0.009655,0.007659,4.035104,-16.227100,-43.066082,,,,,,,5
1508446604.596512,0.302456,0.104573,0.095934,0.008239,-0.010273,0.001795,0.296238,-0.104382,-0.949393,-0.005207,0.005780,0.002509,4.033053,-16.217010,-43.070072,,,,,,,5
1508446604.616537,0.302058,0.104762,0.095928,0.007173,-0.011331,0.002850,0.295855,-0.104571,-0.949492,-0.000521,-0.003400,-0.000337,4.010782,-16.218578,-43.071564,,,,,,,5
1508446604.636553,0.301884,0.104908,0.096009,-0.001353,-0.002821,0.004916,0.295685,-0.104716,-0.949529,-0.002167,-0.003378,0.000325,4.002789,-16.225506,-43.069695,,,,,,,5
1508446604.656563,0.301912,0.104840,0.096112,-0.009868,0.002484,0.001656,0.295713,-0.104648,-0.949528,-0.000044,-0.001264,0.004200,3.997334,-16.227898,-43.069305,,,,,,,5
1508446604.676575,0.301960,0.104625,0.096178,-0.005613,0.009919,0.001696,0.295766,-0.104434,-0.949535,-0.003239,-0.000104,0.003856,4.000719,-16.215994,-43.073471,,,,,,,5
1508446604.696582,0.302148,0.104683,0.096199,0.000778,0.009912,0.000684,0.295943,-0.104492,-0.949473,-0.001708,-0.002930,0.001582,4.005500,-16.214270,-43.073677,,,,,,,5
1508446604.716594,0.302574,0.104860,0.096160,-0.002404,0.001284,-0.000378,0.296342,-0.104668,-0.949329,0.008010,-0.004783,0.001987,4.017380,-16.222015,-43.069656,,,,,,,5
1508446604.736606,0.302680,0.104821,0.096129,-0.005589,-0.012527,-0.001480,0.296443,-0.104629,-0.949302,0.003850,-0.000015,0.005698,4.028840,-16.224781,-43.067543,,,,,,,5
1508446604.756610,0.302324,0.104640,0.096125,-0.001325,-0.019969,-0.002515,0.296111,-0.104449,-0.949425,-0.004317,0.002551,0.003503,4.021096,-16.216763,-43.071289,,,,,,,5
1508446604.776625,0.301901,0.104669,0.096068,0.001866,-0.013596,-0.002484,0.295709,-0.104478,-0.949548,-0.005685,-0.000182,0.005776,4.012900,-16.216091,-43.072304,,,,,,,5
1508446604.796637,0.301677,0.104741,0.096012,-0.000265,-0.008283,-0.002497,0.295494,-0.104549,-0.949607,0.001061,-0.000126,0.003257,3.989572,-16.221375,-43.072483,,,,,,,5
1508446604.816646,0.301569,0.104606,0.095979,-0.005589,-0.008280,-0.002541,0.295395,-0.104415,-0.949652,0.001495,0.003295,0.002295,3.987816,-16.217537,-43.074089,,,,,,,5
1508446604.836657,0.301386,0.104361,0.095969,-0.003461,-0.011464,-0.001462,0.295229,-0.104172,-0.949731,0.000960,0.006653,0.002541,3.984117,-16.215277,-43.075283,,,,,,,5
1508446604.856669,0.301021,0.103884,0.095956,-0.000266,-0.011470,-0.002500,0.294897,-0.103697,-0.949886,-0.005346,0.010008,0.001399,3.977160,-16.195747,-43.083267,,,,,,,5
1508446604.876678,0.300601,0.103655,0.095911,0.005053,-0.005247,-0.002435,0.294505,-0.103470,-0.950032,-0.003062,0.001465,-0.000056,3.953514,-16.176945,-43.092510,,,,,,,5
1508446604.896683,0.300570,0.103763,0.095895,0.002914,0.000081,0.001810,0.294472,-0.103577,-0.950031,-0.000161,-0.000900,0.001086,3.953514,-16.176945,-43.092510,,,,,,,5
1508446604.916678,0.300561,0.104161,0.095910,0.001850,-0.004163,0.002863,0.294452,-0.103973,-0.949994,-0.000583,-0.005753,0.003781,3.946945,-16.192074,-43.087429,,,,,,,5
1508446604.936709,0.300349,0.104433,0.095915,0.010376,-0.017978,0.002923,0.294242,-0.104243,-0.950029,0.000940,-0.005117,0.000383,3.938960,-16.202423,-43.084270,,,,,,,5
1508446604.956709,0.299843,0.104844,0.095881,0.018901,-0.039220,0.005107,0.293748,-0.104652,-0.950137,0.005324,0.002540,0.003283,3.929637,-16.212765,-43.081230,,,,,,,5
1508446604.976730,0.298798,0.104732,0.095850,0.030613,-0.056212,0.008385,0.292758,-0.104541,-0.950455,-0.010135,0.025485,-0.002060,3.881520,-16.232992,-43.077976,,,,,,,5
1508446604.996740,0.296892,0.104471,0.095936,0.048697,-0.045586,0.012800,0.290955,-0.104281,-0.951037,-0.019928,0.020984,-0.007505,3.815506,-16.219898,-43.088806,,,,,,,5
1508446605.016750,0.295798,0.105499,0.095903,0.059331,-0.023280,0.013970,0.289882,-0.105303,-0.951252,-0.018657,0.006853,-0.010968,3.776579,-16.222633,-43.091206,,,,,,,5
1508446605.036746,0.295068,0.107444,0.096033,0.024173,0.008475,0.016902,0.289128,-0.107237,-0.951265,-0.010746,-0.036562,-0.004942,3.706781,-16.296947,-43.069218,,,,,,,5
1508446605.056745,0.295374,0.108597,0.096372,-0.026936,0.038227,0.011180,0.289383,-0.108384,-0.951058,-0.007049,-0.022277,0.012016,3.688454,-16.368999,-43.043461,,,,,,,5
1508446605.076780,0.296314,0.108128,0.096774,-0.039716,0.050978,0.010020,0.290292,-0.107917,-0.950834,-0.005013,-0.009270,0.019193,3.704476,-16.374084,-43.040154,,,,,,,5
1508446605.096792,0.297653,0.107539,0.097202,-0.020562,0.042502,0.018689,0.291583,-0.107332,-0.950505,0.013089,0.006532,0.013371,3.765555,-16.338352,-43.048428,,,,,,,5
1508446605.116792,0.298222,0.107557,0.097648,0.000736,0.024443,0.022046,0.292123,-0.107349,-0.950337,0.023230,0.006687,0.007023,3.801873,-16.325914,-43.049957,,,,,,,5
1508446605.136812,0.298539,0.107704,0.098061,0.001808,0.012753,0.020981,0.292420,-0.107496,-0.950229,0.022018,0.007230,0.003726,3.812723,-16.326731,-43.048683,,,,,,,5
1508446605.156824,0.298758,0.107835,0.098389,0.001824,-0.007441,0.017771,0.292624,-0.107626,-0.950151,0.010614,0.000662,0.000521,3.815433,-16.331203,-43.046749,,,,,,,5
1508446605.176832,0.298344,0.107940,0.098680,-0.001360,-0.024600,0.013468,0.292227,-0.107730,-0.950262,0.007792,-0.010586,0.000631,3.808282,-16.333128,-43.046650,,,,,,,5
1508446605.196843,0.298058,0.108210,0.098881,-0.013066,-0.016113,0.008054,0.291947,-0.107999,-0.950317,0.008056,-0.014331,0.000031,3.795430,-16.333015,-43.047832,,,,,,,5
1508446605.216832,0.298279,0.108140,0.099025,-0.025835,0.001924,-0.000556,0.292159,-0.107929,-0.950260,0.003358,0.001301,0.009785,3.787080,-16.344421,-43.044235,,,,,,,5
1508446605.236864,0.298727,0.106556,0.099007,-0.019440,0.021003,-0.012202,0.292635,-0.106355,-0.950291,-0.001329,0.022996,0.017598,3.809044,-16.298113,-43.059853,,,,,,,5
1508446605.256851,0.299324,0.106342,0.098635,0.004004,0.030504,-0.025843,0.293209,-0.106142,-0.950138,-0.001903,0.022783,0.017445,3.809044,-16.298113,-43.059853,,,,,,,5
1508446605.276887,0.300369,0.106457,0.097929,0.019988,0.023043,-0.031040,0.294198,-0.106256,-0.949820,0.005698,-0.003576,0.006857,3.888771,-16.268820,-43.063808,,,,,,,5
1508446605.296895,0.300747,0.107892,0.097205,0.019998,-0.004562,-0.026801,0.294511,-0.107682,-0.949562,0.002684,-0.024611,-0.006478,3.922472,-16.316566,-43.042679,,,,,,,5
1508446605.316879,0.300715,0.108983,0.096820,0.011457,-0.026791,-0.005592,0.294446,-0.108767,-0.949458,0.013614,-0.014951,-0.014775,3.920612,-16.375591,-43.020428,,,,,,,5
1508446605.336904,0.300130,0.108620,0.096734,-0.014084,-0.061988,-0.006908,0.293902,-0.108407,-0.949668,0.009488,0.010171,-0.006280,3.901155,-16.393101,-43.015530,,,,,,,5
1508446605.356903,0.298163,0.107181,0.096663,-0.018324,-0.079010,-0.014409,0.292079,-0.106976,-0.950393,-0.017161,0.023571,0.002349,3.849543,-16.345760,-43.038189,,,,,,,5
1508446605.376938,0.295965,0.106663,0.096490,0.010416,-0.081136,-0.009915,0.290006,-0.106461,-0.951085,-0.025174,0.019013,0.001973,3.803204,-16.315769,-43.053680,,,,,,,5
1508446605.396933,0.293483,0.107313,0.096472,0.021023,-0.055593,0.006164,0.287624,-0.107107,-0.951736,-0.023631,-0.015772,0.004256,3.656172,-16.305729,-43.070221,,,,,,,5
1508446605.416958,0.292999,0.107502,0.096716,-0.007774,0.000766,0.017681,0.287157,-0.107295,-0.951855,-0.017809,-0.010518,0.004666,3.596541,-16.333553,-43.064697,,,,,,,5
1508446605.436967,0.293785,0.107072,0.097159,-0.034415,0.065564,0.012186,0.287919,-0.106868,-0.951673,-0.019883,-0.003835,0.011350,3.597422,-16.328545,-43.066525,,,,,,,5
1508446605.456979,0.295434,0.106024,0.097509,-0.034419,0.103774,0.002632,0.289520,-0.105825,-0.951304,0.003159,0.009619,0.009440,3.668833,-16.278584,-43.079411,,,,,,,5
1508446605.476966,0.297442,0.105325,0.097650,-0.036525,0.090994,-0.006978,0.291451,-0.105130,-0.950791,0.027732,0.009900,0.002244,3.744306,-16.247490,-43.084652,,,,,,,5
1508446605.496995,0.298387,0.104641,0.097585,-0.025826,0.013412,-0.014401,0.292371,-0.104451,-0.950584,0.036227,0.013417,0.000480,3.804235,-16.223690,-43.088375,,,,,,,5
1508446605.517003,0.298505,0.104267,0.097361,0.006130,-0.060012,-0.004627,0.292495,-0.104078,-0.950586,0.017655,0.001982,0.005381,3.853356,-16.188349,-43.097301,,,,,,,5
1508446605.537006,0.296872,0.104623,0.097284,0.023167,-0.087615,0.002946,0.290931,-0.104432,-0.951027,0.008645,-0.002395,0.006920,3.807788,-16.195677,-43.098598,,,,,,,5
1508446605.557022,0.295359,0.104978,0.097169,0.013584,-0.065323,-0.003505,0.289481,-0.104785,-0.951431,0.002877,-0.003308,0.005233,3.750870,-16.210136,-43.098152,,,,,,,5
1508446605.577040,0.294346,0.105200,0.096978,-0.003452,-0.024984,-0.014262,0.288511,-0.105006,-0.951701,-0.014783,-0.007466,0.000102,3.665533,-16.233517,-43.096691,,,,,,,5
1508446605.597050,0.293885,0.105170,0.096724,-0.006653,0.000502,-0.017463,0.288072,-0.104976,-0.951837,-0.013903,-0.007267,0.002100,3.642812,-16.235256,-43.097965,,,,,,,5
1508446605.617061,0.293723,0.105168,0.096490,-0.004530,-0.001610,-0.013188,0.287918,-0.104975,-0.951884,-0.008178,-0.006537,-0.000173,3.646235,-16.232229,-43.098816,,,,,,,5
1508446605.637071,0.293825,0.104960,0.096310,-0.011979,-0.022836,-0.009007,0.288022,-0.104768,-0.951876,0.003909,0.002717,0.001970,3.643547,-16.236628,-43.097385,,,,,,,5
1508446605.657082,0.293002,0.104293,0.096316,-0.020514,-0.032490,-0.002715,0.287259,-0.104104,-0.952179,-0.008160,0.007623,0.006256,3.627778,-16.211906,-43.108021,,,,,,,5
1508446605.677078,0.292215,0.103818,0.096454,-0.012012,-0.028219,0.004811,0.286523,-0.103632,-0.952452,-0.009774,0.007913,0.009398,3.627778,-16.211906,-43.108021,,,,,,,5
1508446605.697077,0.291292,0.103913,0.096657,-0.000308,-0.026087,0.009169,0.285641,-0.103726,-0.952707,-0.003246,-0.006290,0.000467,3.549539,-16.174406,-43.128616,,,,,,,5
1508446605.717113,0.290906,0.104223,0.096942,-0.013101,-0.015434,0.015460,0.285264,-0.104035,-0.952786,0.001174,-0.006546,0.001263,3.521791,-16.187504,-43.125977,,,,,,,5
1508446605.737106,0.290791,0.103948,0.097344,-0.023751,-0.000563,0.013254,0.285163,-0.103761,-0.952846,0.001520,-0.002684,0.002681,3.514074,-16.188015,-43.126415,,,,,,,5
1508446605.757129,0.290942,0.103363,0.097609,-0.012029,0.005776,0.004837,0.285324,-0.103179,-0.952861,-0.000427,0.007781,0.009212,3.512316,-16.158182,-43.137745,,,,,,,5
1508446605.777144,0.291182,0.103279,0.097641,0.002880,0.015315,0.000709,0.285555,-0.103096,-0.952801,-0.001146,0.003013,0.008343,3.519002,-16.146734,-43.141483,,,,,,,5
1508446605.797153,0.291625,0.103314,0.097682,0.001804,0.023830,0.004965,0.285976,-0.103130,-0.952671,-0.000057,0.001949,0.004276,3.530208,-16.145683,-43.140965,,,,,,,5
1508446605.817166,0.292667,0.103137,0.097691,0.000732,0.018399,0.002795,0.286974,-0.102954,-0.952390,0.011626,0.003116,0.002378,3.574841,-16.141357,-43.138905,,,,,,,5
1508446605.837176,0.293113,0.103056,0.097646,-0.001379,-0.000739,-0.002561,0.287401,-0.102873,-0.952270,0.012617,0.002470,0.000579,3.610841,-16.136097,-43.137875,,,,,,,5
1508446605.857184,0.292987,0.102984,0.097539,-0.001359,-0.029432,-0.005777,0.287283,-0.102802,-0.952313,0.011347,-0.000454,-0.001270,3.609646,-16.135164,-43.138329,,,,,,,5
1508446605.877188,0.292386,0.103068,0.097459,-0.000289,-0.049605,-0.002589,0.286708,-0.102886,-0.952477,0.003957,-0.002736,0.001321,3.588281,-16.135338,-43.140045,,,,,,,5
1508446605.897205,0.291393,0.103101,0.097372,0.000780,-0.053858,-0.003648,0.285761,-0.102918,-0.952758,-0.001169,-0.001986,0.006668,3.558148,-16.138390,-43.141396,,,,,,,5
1508446605.917198,0.290556,0.103174,0.097341,-0.003492,-0.033664,-0.001538,0.284961,-0.102991,-0.952990,-0.001529,-0.004248,0.007693,3.529035,-16.139997,-43.143188,,,,,,,5
1508446605.937216,0.289914,0.102745,0.097419,-0.008834,-0.003912,-0.000496,0.284363,-0.102565,-0.953215,-0.010727,0.009517,0.010832,3.484288,-16.134853,-43.148750,,,,,,,5
1508446605.957229,0.289989,0.102379,0.097430,-0.001392,0.023697,-0.002543,0.284445,-0.102200,-0.953229,-0.011694,0.012081,0.006208,3.476267,-16.109354,-43.158920,,,,,,,5
1508446605.977249,0.290328,0.102304,0.097364,0.007127,0.028996,-0.004598,0.284770,-0.102126,-0.953140,-0.011531,0.006881,0.005157,3.487363,-16.109356,-43.158028,,,,,,,5
1508446605.997260,0.290172,0.102481,0.097303,0.014563,0.023583,-0.002441,0.284616,-0.102302,-0.953167,-0.009668,-0.000100,-0.001392,3.494205,-16.106150,-43.158669,,,,,,,5
1508446606.017269,0.290367,0.102659,0.097276,0.018813,0.019354,0.003980,0.284796,-0.102478,-0.953095,-0.002722,0.003754,-0.006210,3.498273,-16.122169,-43.152359,,,,,,,5
1508446606.037273,0.290670,0.103105,0.097241,0.019883,0.008730,0.003981,0.285073,-0.102923,-0.952964,0.001274,-0.001783,-0.001900,3.502041,-16.126402,-43.150471,,,,,,,5
1508446606.057274,0.291206,0.104002,0.097158,0.010310,-0.006136,0.003891,0.285556,-0.103814,-0.952723,0.011441,-0.009467,-0.001074,3.521796,-16.169369,-43.132778,,,,,,,5
1508446606.077300,0.291395,0.104116,0.097282,-0.016313,-0.007172,0.006865,0.285733,-0.103928,-0.952657,0.004458,-0.001403,0.006582,3.532193,-16.185497,-43.125881,,,,,,,5
1508446606.097305,0.291355,0.103766,0.097519,-0.016315,-0.007168,0.007929,0.285705,-0.103580,-0.952703,0.001450,0.002902,0.011038,3.533956,-16.179836,-43.127861,,,,,,,5
1508446606.117300,0.291388,0.103477,0.097682,0.001783,-0.003989,0.008081,0.285745,-0.103292,-0.952723,-0.000238,0.003225,0.008356,3.533340,-16.154800,-43.137295,,,,,,,5
1508446606.137330,0.291406,0.103686,0.097781,0.006029,0.003357,0.007029,0.285756,-0.103501,-0.952697,0.000605,-0.003265,0.002944,3.531678,-16.156631,-43.136742,,,,,,,5
1508446606.157334,0.291558,0.103957,0.097829,0.001773,0.008660,0.003804,0.285893,-0.103770,-0.952626,0.000514,-0.007207,0.003240,3.533389,-16.162628,-43.134357,,,,,,,5
1508446606.177328,0.292097,0.104178,0.097883,-0.006742,0.017153,0.000546,0.286400,-0.103990,-0.952450,0.004814,-0.001296,0.003750,3.550431,-16.181192,-43.125996,,,,,,,5
1508446606.197345,0.292575,0.103930,0.097921,-0.009932,0.011840,-0.000549,0.286862,-0.103743,-0.952338,0.011691,0.003233,0.003882,3.577987,-16.172441,-43.127007,,,,,,,5
1508446606.217362,0.292904,0.103649,0.097933,-0.008862,0.000155,-0.000549,0.287184,-0.103464,-0.952271,0.011583,0.005380,0.001862,3.582497,-16.168369,-43.128159,,,,,,,5
1508446606.237356,0.293259,0.103282,0.097907,-0.008856,-0.008345,-0.001621,0.287533,-0.103099,-0.952206,0.008915,0.002986,0.004940,3.605203,-16.147274,-43.134167,,,,,,,5
1508446606.257373,0.293148,0.103041,0.097860,-0.007781,-0.018979,-0.004814,0.287434,-0.102859,-0.952261,0.007442,0.004226,0.005545,3.607779,-16.139551,-43.136841,,,,,,,5
1508446606.277390,0.292910,0.102782,0.097761,-0.009904,-0.021113,-0.008028,0.287216,-0.102601,-0.952355,0.006363,0.002366,0.004525,3.606482,-16.131657,-43.139904,,,,,,,5
1508446606.297415,0.292325,0.102462,0.097587,-0.001381,-0.036047,-0.011188,0.286668,-0.102283,-0.952554,-0.000474,0.001239,0.001291,3.587281,-16.112700,-43.148586,,,,,,,5
1508446606.317424,0.291369,0.102808,0.097407,0.011390,-0.047713,-0.003638,0.285747,-0.102627,-0.952794,-0.001597,-0.010242,-0.003779,3.549380,-16.125031,-43.147114,,,,,,,5
1508446606.337421,0.290393,0.103066,0.097368,-0.003525,-0.040258,-0.000561,0.284809,-0.102883,-0.953047,-0.002964,-0.009498,-0.002733,3.529602,-16.129358,-43.147118,,,,,,,5
1508446606.357443,0.289361,0.102816,0.097483,-0.015248,-0.020069,-0.000642,0.283833,-0.102635,-0.953365,-0.011128,0.005345,0.006450,3.464479,-16.134691,-43.150406,,,,,,,5
1508446606.377455,0.288782,0.102245,0.097572,-0.010997,0.002229,-0.002720,0.283298,-0.102067,-0.953585,-0.013172,0.008912,0.009341,3.436800,-16.111753,-43.161186,,,,,,,5
1508446606.397461,0.288728,0.101930,0.097576,-0.003549,0.014969,-0.003714,0.283255,-0.101754,-0.953631,-0.013968,0.009377,0.005145,3.429714,-16.100340,-43.166012,,,,,,,5
1508446606.417457,0.288542,0.101809,0.097551,0.009225,0.010720,-0.001482,0.283082,-0.101633,-0.953696,-0.005066,-0.001211,-0.000223,3.425887,-16.085339,-43.171909,,,,,,,5
1508446606.437486,0.288723,0.102261,0.097505,0.014544,0.007545,0.002819,0.283240,-0.102083,-0.953601,0.000909,-0.005202,-0.002454,3.425516,-16.095631,-43.168098,,,,,,,5
1508446606.457496,0.289067,0.102599,0.097578,-0.000367,0.006502,0.005889,0.283559,-0.102419,-0.953470,0.006267,-0.003095,-0.000143,3.431710,-16.113359,-43.160992,,,,,,,5
1508446606.477507,0.289367,0.102524,0.097666,-0.005687,0.005386,0.003690,0.283847,-0.102344,-0.953392,0.002713,0.000507,0.007607,3.440387,-16.116568,-43.159103,,,,,,,5
1508446606.497518,0.289713,0.102458,0.097758,-0.002496,0.008576,0.004783,0.284179,-0.102279,-0.953300,0.002839,0.001983,0.006553,3.459780,-16.111061,-43.159611,,,,,,,5
1508446606.517527,0.290142,0.102320,0.097863,-0.005694,0.011770,0.005824,0.284592,-0.102141,-0.953192,0.005233,0.003234,0.004812,3.473754,-16.107094,-43.159966,,,,,,,5
1508446606.537539,0.290415,0.102116,0.097931,-0.004619,0.009626,0.000507,0.284859,-0.101938,-0.953134,0.002754,0.006037,0.003396,3.483711,-16.102634,-43.160831,,,,,,,5
1508446606.557544,0.290509,0.101917,0.097956,0.003899,0.003252,0.001637,0.284953,-0.101741,-0.953127,-0.000728,0.003840,0.002504,3.499912,-16.088091,-43.164944,,,,,,,5
1508446606.577559,0.290516,0.102104,0.097927,0.009232,-0.007381,-0.000456,0.284954,-0.101926,-0.953106,0.002475,-0.002276,0.001248,3.502418,-16.089396,-43.164253,,,,,,,5
1508446606.597571,0.290582,0.102425,0.097867,0.002845,-0.009501,-0.000510,0.285009,-0.102246,-0.953056,0.007106,-0.006564,0.002235,3.502356,-16.098003,-43.161049,,,,,,,5
1508446606.617579,0.290729,0.102545,0.097852,-0.010998,-0.004181,-0.000620,0.285145,-0.102365,-0.953003,0.003872,-0.005972,0.005889,3.505912,-16.110874,-43.155956,,,,,,,5
1508446606.637587,0.290878,0.102280,0.097897,-0.015250,-0.009504,-0.000681,0.285295,-0.102102,-0.952986,0.005141,0.002126,0.005858,3.512053,-16.109018,-43.156151,,,,,,,5
1508446606.657601,0.290775,0.101751,0.097935,-0.005667,-0.021186,0.001518,0.285212,-0.101575,-0.953067,0.004827,0.010099,0.004642,3.511180,-16.087622,-43.164200,,,,,,,5
1508446606.677610,0.290165,0.101617,0.097960,0.008177,-0.027567,0.001627,0.284634,-0.101443,-0.953254,-0.002911,0.002459,-0.001290,3.495764,-16.072433,-43.171112,,,,,,,5
1508446606.697623,0.289504,0.101855,0.097961,0.011366,-0.024374,0.003786,0.283997,-0.101679,-0.953419,-0.006455,0.000177,0.002506,3.480710,-16.074301,-43.171631,,,,,,,5
1508446606.717612,0.288792,0.102233,0.098033,0.004969,-0.006313,0.003747,0.283307,-0.102055,-0.953584,-0.007291,-0.003444,0.004060,3.431332,-16.092936,-43.168640,,,,,,,5
1508446606.737641,0.288851,0.102323,0.098130,-0.004619,0.005378,0.003677,0.283361,-0.102145,-0.953558,0.002451,-0.001752,-0.000711,3.422378,-16.099953,-43.166733,,,,,,,5
1508446606.757645,0.289063,0.102183,0.098187,-0.009936,0.004308,0.000438,0.283568,-0.102005,-0.953512,0.004900,-0.000931,0.002782,3.426079,-16.098749,-43.166893,,,,,,,5
1508446606.777640,0.289338,0.101950,0.098213,-0.005670,-0.001033,0.000449,0.283837,-0.101774,-0.953456,0.000190,0.003370,0.005534,3.445333,-16.087444,-43.169575,,,,,,,5
1508446606.797673,0.289269,0.101775,0.098245,0.000719,-0.006344,0.001562,0.283775,-0.101600,-0.953493,-0.001060,0.004432,0.003740,3.445452,-16.079338,-43.172585,,,,,,,5
1508446606.817666,0.289057,0.101759,0.098217,0.006049,-0.013791,-0.000529,0.283574,-0.101584,-0.953555,-0.000066,0.005667,0.001452,3.445452,-16.079338,-43.172585,,,,,,,5
1508446606.837694,0.288968,0.101849,0.098143,0.003922,-0.014854,-0.001612,0.283486,-0.101673,-0.953571,0.002143,-0.001400,0.001087,3.433341,-16.078129,-43.173996,,,,,,,5
1508446606.857706,0.288743,0.101960,0.098121,-0.003535,-0.006352,-0.001667,0.283269,-0.101783,-0.953624,-0.002431,-0.003838,0.001628,3.427348,-16.080215,-43.173698,,,,,,,5
1508446606.877714,0.288708,0.101963,0.098087,-0.002469,-0.001048,-0.003784,0.283235,-0.101786,-0.953634,-0.001924,-0.004507,0.003164,3.421388,-16.084301,-43.172649,,,,,,,5
1508446606.897725,0.288560,0.101887,0.098089,-0.001405,-0.005290,-0.001648,0.283097,-0.101711,-0.953683,-0.000428,0.001141,0.000222,3.416194,-16.083580,-43.173328,,,,,,,5
1508446606.917724,0.288415,0.101876,0.098068,0.000724,-0.013782,0.000492,0.282958,-0.101700,-0.953725,0.002503,0.004898,0.003301,3.411969,-16.081848,-43.174309,,,,,,,5
1508446606.937746,0.288201,0.101701,0.098077,-0.006727,-0.013782,-0.000634,0.282759,-0.101526,-0.953803,0.002275,0.004098,0.003913,3.406253,-16.081469,-43.174900,,,,,,,5
1508446606.957757,0.288175,0.101538,0.098055,-0.003530,0.000015,-0.001683,0.282739,-0.101363,-0.953826,-0.002847,0.000640,0.009933,3.401460,-16.070772,-43.179264,,,,,,,5
1508446606.977766,0.288318,0.101602,0.098067,-0.003538,0.009584,0.000454,0.282874,-0.101428,-0.953779,-0.001609,-0.004728,0.006208,3.404014,-16.071182,-43.178909,,,,,,,5
1508446606.997776,0.288843,0.101729,0.098086,-0.012054,0.011710,-0.000679,0.283370,-0.101553,-0.953618,0.008790,-0.006418,0.002920,3.414409,-16.074417,-43.176880,,,,,,,5
1508446607.017789,0.289557,0.101496,0.098033,-0.028002,-0.006365,-0.008278,0.284059,-0.101322,-0.953438,0.019973,-0.006115,-0.001014,3.444227,-16.067436,-43.177116,,,,,,,5
1508446607.037797,0.290269,0.101022,0.097862,-0.035419,-0.053120,-0.014763,0.284751,-0.100850,-0.953282,0.036737,-0.007305,-0.002208,3.474797,-16.049915,-43.181179,,,,,,,5
1508446607.057788,0.289475,0.100410,0.097645,-0.032188,-0.129601,-0.013730,0.284012,-0.100242,-0.953566,0.028275,-0.000527,0.000823,3.492390,-16.038610,-43.183964,,,,,,,5
1508446607.077810,0.286318,0.099359,0.097548,-0.017265,-0.185893,-0.008326,0.281029,-0.099195,-0.954559,-0.003869,0.018232,0.011306,3.374757,-15.998824,-43.208065,,,,,,,5
1508446607.097829,0.281754,0.098525,0.097562,0.008282,-0.175272,-0.002802,0.276693,-0.098365,-0.955911,-0.030325,0.019416,0.010934,3.202568,-15.958465,-43.236084,,,,,,,5
1508446607.117813,0.279145,0.098947,0.097351,0.025289,-0.099873,-0.007928,0.274186,-0.098785,-0.956590,-0.036195,0.010330,0.006455,3.107229,-15.948093,-43.246868,,,,,,,5
1508446607.137851,0.278054,0.099400,0.097075,-0.012007,-0.003216,-0.017745,0.273130,-0.099236,-0.956845,-0.013502,-0.019141,-0.002841,2.997242,-15.972046,-43.245792,,,,,,,5
1508446607.157860,0.278965,0.098250,0.096833,-0.075898,0.062628,-0.033129,0.274033,-0.098092,-0.956705,0.023407,-0.013892,-0.002570,3.000085,-15.969942,-43.246376,,,,,,,5
1508446607.177870,0.281469,0.096284,0.096401,-0.118443,0.049833,-0.054785,0.276480,-0.096135,-0.956199,0.065133,-0.015727,-0.006142,3.064472,-15.898415,-43.268208,,,,,,,5
1508446607.197882,0.281807,0.092938,0.095715,-0.169440,-0.026771,-0.095724,0.276891,-0.092804,-0.956409,0.113108,-0.027282,-0.020031,3.166850,-15.829696,-43.286026,,,,,,,5
1508446607.217883,0.278759,0.088616,0.094446,-0.201204,-0.253163,-0.133424,0.274083,-0.088500,-0.957625,0.150813,-0.045442,-0.019853,3.164639,-15.641100,-43.354694,,,,,,,5
1508446607.237901,0.270532,0.083644,0.092771,-0.226593,-0.507122,-0.155120,0.266310,-0.083546,-0.960260,0.141329,-0.025158,0.011453,2.956708,-15.455970,-43.435688,,,,,,,5
1508446607.257912,0.258627,0.078341,0.090791,-0.223307,-0.648455,-0.166912,0.254969,-0.078261,-0.963777,0.123724,-0.007295,0.033784,2.771575,-15.354450,-43.483875,,,,,,,5
1508446607.277901,0.244789,0.073879,0.088507,-0.163636,-0.721782,-0.164363,0.241691,-0.073812,-0.967542,0.053308,0.033971,0.041806,1.880474,-15.012517,-43.650620,,,,,,,5
1508446607.297932,0.230796,0.070470,0.085729,-0.122094,-0.686816,-0.184224,0.228185,-0.070412,-0.971068,0.045176,0.030022,0.042540,1.589850,-14.941634,-43.686474,,,,,,,5
1508446607.317845,0.218735,0.067119,0.082209,-0.128466,-0.577534,-0.224654,0.216506,-0.067069,-0.973975,0.030412,0.001319,0.005469,0.800323,-14.770366,-43.766239,,,,,,,5
1508446607.337839,0.207619,0.063334,0.077889,-0.148622,-0.580856,-0.266348,0.205717,-0.063292,-0.976563,0.032274,-0.026262,-0.015503,0.478590,-14.681634,-43.800785,,,,,,,5
1508446607.357864,0.195650,0.059075,0.072760,-0.158107,-0.630926,-0.307989,0.194065,-0.059041,-0.979210,0.035931,-0.028835,-0.007942,0.154436,-14.582882,-43.836102,,,,,,,5
1508446607.377877,0.183148,0.055103,0.067165,-0.128293,-0.640494,-0.305621,0.181850,-0.055075,-0.981783,0.000203,-0.010232,0.025652,-0.305813,-14.445064,-43.880917,,,,,,,5
1508446607.397885,0.170790,0.052080,0.061936,-0.090037,-0.622322,-0.268025,0.169730,-0.052056,-0.984115,-0.027167,-0.008277,0.018661,-0.899258,-14.309443,-43.917187,,,,,,,5
1508446607.417876,0.158949,0.049688,0.057271,-0.077316,-0.593564,-0.244474,0.158085,-0.049668,-0.986176,-0.026585,-0.007309,0.006821,-1.251832,-14.253941,-43.926605,,,,,,,5
1508446607.437909,0.147498,0.047419,0.052672,-0.077322,-0.578694,-0.245528,0.146798,-0.047401,-0.988030,-0.023294,-0.004967,0.015847,-1.928376,-14.163492,-43.931370,,,,,,,5
1508446607.457915,0.136401,0.045152,0.048002,-0.082653,-0.555327,-0.247683,0.135840,-0.045136,-0.989702,-0.010565,-0.007720,0.014299,-2.038156,-14.148936,-43.931103,,,,,,,5
1508446607.477911,0.125766,0.042670,0.043211,-0.101807,-0.536236,-0.259539,0.125320,-0.042658,-0.991199,0.004379,-0.007361,-0.004315,-2.670204,-14.058939,-43.926125,,,,,,,5
1508446607.497938,0.115257,0.039584,0.038110,-0.135843,-0.537352,-0.280051,0.114912,-0.039573,-0.992587,0.016070,-0.009377,-0.007077,-2.969395,-14.003495,-43.924629,,,,,,,5
1508446607.517947,0.104676,0.035881,0.032585,-0.162418,-0.544853,-0.302636,0.104418,-0.035874,-0.993886,0.022688,-0.007354,-0.019023,-3.460979,-13.877261,-43.928711,,,,,,,5
1508446607.537952,0.093457,0.031737,0.026702,-0.184729,-0.586329,-0.318823,0.093274,-0.031732,-0.995135,0.027758,-0.011099,-0.008650,-3.757970,-13.786136,-43.932999,,,,,,,5
1508446607.557969,0.081686,0.027244,0.020453,-0.198528,-0.603386,-0.338115,0.081565,-0.027241,-0.996296,0.022790,-0.012966,-0.002972,-4.398695,-13.578155,-43.938290,,,,,,,5
1508446607.577954,0.069839,0.023288,0.013873,-0.180399,-0.640593,-0.343317,0.069764,-0.023286,-0.997292,0.007476,-0.002715,0.014321,-4.826008,-13.454282,-43.931538,,,,,,,5
1508446607.597988,0.056855,0.019724,0.007300,-0.136748,-0.660773,-0.335519,0.056813,-0.019723,-0.998190,0.004054,0.001153,0.024923,-5.063357,-13.393128,-43.923512,,,,,,,5
1508446607.618000,0.044128,0.017467,0.001030,-0.072935,-0.622456,-0.305150,0.044107,-0.017466,-0.998874,-0.029474,0.009958,0.034854,-5.791884,-13.278439,-43.868271,,,,,,,5
1508446607.638010,0.032681,0.016123,-0.004781,-0.053840,-0.550160,-0.285772,0.032671,-0.016123,-0.999336,-0.040331,0.009378,0.015709,-6.234880,-13.260994,-43.812790,,,,,,,5
1508446607.658019,0.022656,0.014836,-0.010204,-0.053911,-0.482095,-0.264426,0.022652,-0.014836,-0.999633,-0.046501,0.007771,0.009857,-6.528285,-13.250833,-43.773113,,,,,,,5
1508446607.678031,0.013798,0.014104,-0.015441,-0.011354,-0.422622,-0.262965,0.013796,-0.014104,-0.999805,-0.047488,0.011571,0.028171,-6.952794,-13.245522,-43.709301,,,,,,,5
1508446607.698041,0.006278,0.014799,-0.020727,0.064203,-0.352538,-0.260159,0.006277,-0.014798,-0.999871,-0.029440,-0.004992,-0.004554,-7.229659,-13.299201,-43.648045,,,,,,,5
1508446607.718051,-0.000015,0.016419,-0.025439,0.080074,-0.300342,-0.217399,-0.000015,-0.016418,-0.999865,-0.021317,-0.004257,-0.008893,-7.400875,-13.375988,-43.595852,,,,,,,5
1508446607.738050,-0.006072,0.017700,-0.029016,0.054418,-0.316044,-0.154803,-0.006071,-0.017699,-0.999825,-0.018038,-0.006532,0.006310,-7.663669,-13.493482,-43.514164,,,,,,,5
1508446607.758073,-0.012419,0.018819,-0.031752,0.061844,-0.321299,-0.137709,-0.012416,-0.018817,-0.999746,0.005290,0.011554,0.019536,-7.842269,-13.544361,-43.466511,,,,,,,5
1508446607.778083,-0.018157,0.019987,-0.035095,0.094968,-0.384163,-0.187527,-0.018153,-0.019986,-0.999635,0.036189,0.014813,-0.017637,-8.087667,-13.625605,-43.396091,,,,,,,5
1508446607.798078,-0.024030,0.021838,-0.039527,0.071647,-0.408754,-0.238846,-0.024022,-0.021836,-0.999473,0.030812,-0.008681,-0.033257,-8.332844,-13.732388,-43.315975,,,,,,,5
1508446607.818095,-0.030212,0.024047,-0.044364,0.017294,-0.306729,-0.236023,-0.030198,-0.024045,-0.999255,0.006761,-0.021518,-0.015150,-8.529921,-13.853212,-43.239067,,,,,,,5
1508446607.838113,-0.035170,0.025256,-0.048641,0.014003,-0.230117,-0.200855,-0.035152,-0.025254,-0.999063,0.004481,-0.021988,0.002267,-8.529921,-13.853212,-43.239067,,,,,,,5
1508446607.858126,-0.039643,0.027289,-0.052357,0.012923,-0.270402,-0.177468,-0.039618,-0.027285,-0.998842,0.006399,-0.010358,0.020891,-8.833931,-14.071444,-43.107361,,,,,,,5
1508446607.878135,-0.045805,0.027566,-0.055664,-0.019009,-0.346813,-0.160754,-0.045771,-0.027562,-0.998572,0.009394,0.000844,0.021384,-9.032309,-14.131147,-43.046677,,,,,,,5
1508446607.898146,-0.052179,0.026797,-0.059056,-0.057332,-0.321339,-0.172763,-0.052136,-0.026794,-0.998280,-0.000995,0.005584,-0.012324,-9.217770,-14.132805,-43.006802,,,,,,,5
1508446607.918157,-0.060796,0.025994,-0.061974,-0.049919,-0.419963,-0.121668,-0.060738,-0.025991,-0.997815,-0.053764,-0.013697,0.005216,-9.392467,-14.119759,-42.973274,,,,,,,5
1508446607.938151,-0.068875,0.025762,-0.063504,0.006364,-0.387857,-0.045582,-0.068798,-0.025760,-0.997298,-0.089436,-0.017331,0.037734,-9.824501,-14.106355,-42.880981,,,,,,,5
1508446607.958177,-0.075178,0.026357,-0.063928,0.029677,-0.262416,-0.017612,-0.075081,-0.026354,-0.996829,-0.086403,-0.016447,0.044192,-10.132418,-14.124905,-42.803150,,,,,,,5
1508446607.978188,-0.078778,0.026456,-0.064213,-0.017228,-0.137005,-0.011543,-0.078669,-0.026452,-0.996550,-0.053945,-0.016272,0.014265,-10.371475,-14.149559,-42.737698,,,,,,,5
1508446607.998172,-0.080680,0.025469,-0.064358,-0.064137,-0.079551,0.006214,-0.080566,-0.025466,-0.996424,-0.018433,-0.025727,0.003000,-10.463019,-14.118668,-42.725597,,,,,,,5
1508446608.018207,-0.081764,0.023813,-0.063729,-0.088732,-0.036874,0.055021,-0.081650,-0.023811,-0.996377,-0.015167,-0.025093,0.005639,-10.512016,-14.069882,-42.729664,,,,,,,5
1508446608.038219,-0.082564,0.021783,-0.062333,-0.096237,-0.052686,0.089019,-0.082450,-0.021781,-0.996357,0.001564,-0.012582,0.009953,-10.573947,-13.955532,-42.751881,,,,,,,5
1508446608.058229,-0.083697,0.019945,-0.060599,-0.042955,-0.153622,0.091512,-0.083583,-0.019944,-0.996301,0.032085,0.008576,0.023294,-10.674459,-13.866412,-42.755901,,,,,,,5
1508446608.078239,-0.088031,0.019824,-0.059006,0.022073,-0.245082,0.072814,-0.087900,-0.019822,-0.995932,0.028345,0.003740,0.018958,-10.758949,-13.822749,-42.748859,,,,,,,5
1508446608.098249,-0.093485,0.020260,-0.057855,0.021076,-0.279176,0.044032,-0.093330,-0.020258,-0.995429,-0.070793,-0.009893,0.005027,-11.054945,-13.830361,-42.670803,,,,,,,5
1508446608.118234,-0.102580,0.020847,-0.057169,0.003010,-0.272882,0.022593,-0.102378,-0.020845,-0.994527,-0.089654,-0.012923,0.006826,-11.240131,-13.833196,-42.621475,,,,,,,5
1508446608.138252,-0.108136,0.021193,-0.056975,0.036068,-0.282552,-0.003760,-0.107901,-0.021191,-0.993936,-0.099985,-0.010135,0.017785,-11.631933,-13.854647,-42.509235,,,,,,,5
1508446608.158275,-0.113613,0.022585,-0.057319,0.080833,-0.256135,-0.037442,-0.113340,-0.022583,-0.993300,-0.084353,-0.005569,0.010496,-11.925322,-13.910355,-42.409634,,,,,,,5
1508446608.178291,-0.116644,0.024046,-0.058280,0.046715,-0.070302,-0.064202,-0.116346,-0.024043,-0.992918,-0.072100,-0.012990,-0.014498,-12.080311,-13.986254,-42.340748,,,,,,,5
1508446608.198300,-0.114966,0.024009,-0.059698,-0.046023,0.164498,-0.071178,-0.114680,-0.024006,-0.993112,-0.062475,0.000950,-0.025274,-12.070518,-14.014631,-42.334160,,,,,,,5
1508446608.218312,-0.110215,0.022669,-0.061453,-0.080111,0.257941,-0.088425,-0.109964,-0.022667,-0.993677,-0.031531,0.020088,-0.010244,-11.953112,-13.999022,-42.372620,,,,,,,5
1508446608.238322,-0.105176,0.021989,-0.063730,-0.020413,0.238663,-0.124148,-0.104957,-0.021987,-0.994234,0.027305,0.006820,-0.001952,-11.596453,-13.946177,-42.488995,,,,,,,5
1508446608.258332,-0.100786,0.022244,-0.066542,-0.007583,0.205650,-0.145362,-0.100591,-0.022242,-0.994679,0.059667,-0.020314,-0.012202,-11.422725,-13.964498,-42.530018,,,,,,,5
1508446608.278343,-0.097114,0.021508,-0.069615,-0.084214,0.164239,-0.151349,-0.096939,-0.021507,-0.995058,0.064529,-0.021752,-0.028837,-11.163963,-13.978662,-42.594028,,,,,,,5
1508446608.298350,-0.094616,0.019152,-0.072892,-0.153387,0.093101,-0.150909,-0.094457,-0.019151,-0.995345,0.046072,-0.010757,-0.020326,-11.002778,-13.913726,-42.657185,,,,,,,5
1508446608.318364,-0.093546,0.016626,-0.076130,-0.118226,0.028296,-0.146409,-0.093396,-0.016625,-0.995490,0.024198,0.025994,0.006263,-10.923292,-13.840090,-42.701546,,,,,,,5
1508446608.338375,-0.093597,0.015870,-0.079085,-0.008541,-0.022735,-0.141283,-0.093448,-0.015870,-0.995498,0.003086,0.039521,0.036956,-10.857363,-13.782981,-42.736816,,,,,,,5
1508446608.358376,-0.094457,0.017280,-0.081567,0.095788,-0.052473,-0.123409,-0.094303,-0.017280,-0.995394,-0.017193,0.012168,0.057466,-10.850431,-13.817532,-42.727417,,,,,,,5
1508446608.378395,-0.095110,0.020269,-0.083804,0.155415,-0.023853,-0.132478,-0.094947,-0.020267,-0.995276,-0.017861,0.002369,0.043189,-10.856212,-13.933727,-42.688198,,,,,,,5
1508446608.398406,-0.096636,0.024436,-0.086368,0.137345,-0.026025,-0.147534,-0.096457,-0.024434,-0.995037,-0.022516,-0.017314,0.005566,-10.833300,-14.135111,-42.627769,,,,,,,5
1508446608.418395,-0.097169,0.026593,-0.089176,0.071326,-0.015369,-0.148071,-0.096982,-0.026590,-0.994931,-0.033145,-0.015753,-0.002292,-10.869247,-14.273810,-42.572365,,,,,,,5
1508446608.438428,-0.096155,0.028031,-0.091817,0.060605,0.079237,-0.133182,-0.095969,-0.028027,-0.994990,-0.046029,-0.007648,0.013346,-10.845535,-14.344116,-42.554775,,,,,,,5
1508446608.458417,-0.095682,0.029712,-0.093963,0.093537,0.133486,-0.106250,-0.095494,-0.029707,-0.994987,-0.028972,0.004256,0.014701,-10.764055,-14.464685,-42.534649,,,,,,,5
1508446608.478428,-0.092696,0.032005,-0.095511,0.111575,0.150583,-0.075211,-0.092516,-0.031999,-0.995197,-0.012083,0.005754,0.003604,-10.652754,-14.544610,-42.535416,,,,,,,5
1508446608.498451,-0.089364,0.034265,-0.096399,0.104072,0.131586,-0.041215,-0.089193,-0.034258,-0.995425,0.026617,-0.004224,-0.013288,-10.540250,-14.627224,-42.535110,,,,,,,5
1508446608.518469,-0.087190,0.036207,-0.096773,0.089144,0.099798,-0.020068,-0.087023,-0.036199,-0.995548,0.064897,-0.019328,-0.001415,-10.392266,-14.726948,-42.537117,,,,,,,5
1508446608.538452,-0.082115,0.038716,-0.096803,0.075257,0.096734,0.009628,-0.081962,-0.038706,-0.995884,0.067740,-0.022421,-0.014660,-10.121535,-14.883361,-42.547955,,,,,,,5
1508446608.558489,-0.080706,0.040096,-0.095808,0.076242,0.051258,0.068163,-0.080553,-0.040086,-0.995944,0.066653,-0.018203,-0.010144,-10.121535,-14.883361,-42.547955,,,,,,,5
1508446608.578503,-0.080685,0.041726,-0.093663,0.098553,-0.020823,0.116206,-0.080527,-0.041714,-0.995879,0.064323,-0.015247,-0.003602,-10.065409,-14.993149,-42.522717,,,,,,,5
1508446608.598506,-0.081706,0.043643,-0.090936,0.104936,-0.056897,0.130073,-0.081538,-0.043629,-0.995715,0.056803,-0.022808,-0.000028,-10.133620,-15.057236,-42.483852,,,,,,,5
1508446608.618520,-0.083129,0.045015,-0.088374,0.060249,-0.069675,0.114788,-0.082949,-0.044999,-0.995537,0.038118,-0.024901,-0.001701,-10.133620,-15.057236,-42.483852,,,,,,,5
1508446608.638533,-0.084855,0.045691,-0.086339,0.037947,-0.091003,0.087969,-0.084665,-0.045675,-0.995362,-0.026633,-0.006602,0.008851,-10.271539,-15.120252,-42.428314,,,,,,,5
1508446608.658514,-0.086933,0.046745,-0.084814,0.076327,-0.100672,0.062725,-0.086729,-0.046728,-0.995135,-0.050768,0.003713,0.025424,-10.400608,-15.143010,-42.388737,,,,,,,5
1508446608.678530,-0.092092,0.048574,-0.083539,0.118960,-0.091246,0.034336,-0.091853,-0.048555,-0.994588,-0.059758,0.006731,0.026937,-10.479115,-15.181941,-42.355461,,,,,,,5
1508446608.698562,-0.093765,0.050856,-0.083112,0.107308,-0.076501,-0.004079,-0.093506,-0.050834,-0.994320,-0.083496,0.006645,0.019756,-10.743473,-15.308582,-42.243500,,,,,,,5
1508446608.718546,-0.094591,0.052649,-0.083499,0.074332,-0.008625,-0.041566,-0.094319,-0.052624,-0.994150,-0.068965,-0.004169,0.019663,-10.782749,-15.374079,-42.209694,,,,,,,5
1508446608.738582,-0.093097,0.053923,-0.084580,0.051960,0.121949,-0.071465,-0.092828,-0.053897,-0.994222,-0.060157,-0.005536,0.015310,-10.778543,-15.427985,-42.191097,,,,,,,5
1508446608.758594,-0.089016,0.055006,-0.086235,0.042360,0.244033,-0.097006,-0.088765,-0.054978,-0.994534,-0.015865,0.000412,-0.000125,-10.571095,-15.516932,-42.210960,,,,,,,5
1508446608.778583,-0.083317,0.055857,-0.088536,0.025363,0.283233,-0.130124,-0.083091,-0.055828,-0.994977,0.023841,-0.007313,-0.013751,-10.309897,-15.570944,-42.255650,,,,,,,5
1508446608.798614,-0.078064,0.056505,-0.091304,0.024348,0.227948,-0.142951,-0.077860,-0.056475,-0.995363,0.028330,-0.009092,-0.008299,-10.309897,-15.570944,-42.255650,,,,,,,5
1508446608.818616,-0.074484,0.057934,-0.094037,0.091460,0.138701,-0.136076,-0.074291,-0.057901,-0.995554,0.045757,-0.013952,0.012080,-9.831351,-15.682669,-42.328320,,,,,,,5
1508446608.838621,-0.072590,0.061134,-0.096195,0.181945,0.060155,-0.103446,-0.072391,-0.061096,-0.995503,0.048282,-0.019959,0.020192,-9.725550,-15.776247,-42.317986,,,,,,,5
1508446608.858647,-0.072165,0.065046,-0.097391,0.179770,-0.007673,-0.057731,-0.071950,-0.065000,-0.995288,0.044591,-0.016146,0.013721,-9.662634,-15.905386,-42.284046,,,,,,,5
1508446608.878644,-0.073029,0.067699,-0.097944,0.094569,-0.068079,-0.028667,-0.072797,-0.067647,-0.995050,0.017591,-0.006190,-0.014792,-9.654699,-16.131598,-42.200077,,,,,,,5
1508446608.898656,-0.074909,0.068580,-0.098288,0.015777,-0.108363,-0.016571,-0.074663,-0.068526,-0.994852,-0.019392,0.021697,-0.013312,-9.699125,-16.181158,-42.170906,,,,,,,5
1508446608.918678,-0.077049,0.068664,-0.098531,0.007246,-0.100904,-0.011312,-0.076792,-0.068610,-0.994684,-0.027975,0.026923,-0.006873,-9.762764,-16.194679,-42.151024,,,,,,,5
1508446608.938674,-0.081847,0.067842,-0.098503,0.062584,-0.043593,-0.015070,-0.081568,-0.067790,-0.994360,-0.059393,0.028925,0.009649,-9.845654,-16.202164,-42.128868,,,,,,,5
1508446608.958699,-0.081397,0.069853,-0.098656,0.118956,0.065807,-0.012393,-0.081109,-0.069796,-0.994258,-0.069449,0.019396,0.017208,-10.022057,-16.224052,-42.078815,,,,,,,5
1508446608.978687,-0.078444,0.072712,-0.098418,0.152924,0.198657,0.009283,-0.078157,-0.072648,-0.994291,-0.071730,0.013001,0.016996,-10.022057,-16.224052,-42.078815,,,,,,,5
1508446608.998719,-0.072991,0.075774,-0.097852,0.149670,0.318752,0.018899,-0.072717,-0.075702,-0.994475,-0.030097,-0.015927,0.013396,-9.722237,-16.466724,-42.054886,,,,,,,5
1508446609.018730,-0.065557,0.078228,-0.097427,0.105996,0.398409,0.006887,-0.065310,-0.078148,-0.994800,0.007952,-0.013023,0.009403,-9.430069,-16.577135,-42.078030,,,,,,,5
1508446609.038739,-0.057495,0.079800,-0.097367,0.065559,0.397322,-0.006224,-0.057280,-0.079715,-0.995171,0.036177,-0.006680,0.007576,-9.176089,-16.636011,-42.110935,,,,,,,5
1508446609.058750,-0.050031,0.080988,-0.097408,0.062377,0.358032,-0.002021,-0.049846,-0.080899,-0.995475,0.048595,-0.003955,0.014808,-8.765869,-16.703276,-42.171654,,,,,,,5
1508446609.078745,-0.043205,0.082381,-0.097168,0.074067,0.331539,0.018285,-0.043045,-0.082288,-0.995679,0.079727,-0.006549,-0.000476,-8.543322,-16.744633,-42.200912,,,,,,,5
1508446609.098771,-0.037201,0.083610,-0.096422,0.049559,0.280649,0.043598,-0.037062,-0.083513,-0.995817,0.083373,-0.000838,-0.015810,-8.338133,-16.788567,-42.224491,,,,,,,5
1508446609.118782,-0.032765,0.084151,-0.095397,0.021905,0.190399,0.052884,-0.032644,-0.084052,-0.995926,0.078649,0.028129,-0.028594,-8.021267,-16.835392,-42.267208,,,,,,,5
1508446609.138792,-0.030167,0.084864,-0.094268,0.056010,0.103289,0.058424,-0.030054,-0.084762,-0.995948,0.049326,0.041855,-0.000817,-7.907073,-16.851236,-42.282413,,,,,,,5
1508446609.158801,-0.028985,0.086998,-0.093007,0.141219,0.042694,0.059081,-0.028871,-0.086888,-0.995800,0.020876,0.043813,0.017772,-7.866664,-16.892593,-42.273445,,,,,,,5
1508446609.178813,-0.028865,0.090462,-0.091806,0.183849,-0.007287,0.050878,-0.028743,-0.090339,-0.995496,0.011271,0.029563,0.010801,-7.858965,-17.045361,-42.213512,,,,,,,5
1508446609.198824,-0.029501,0.093670,-0.090928,0.138114,-0.037076,0.031312,-0.029367,-0.093533,-0.995183,0.010095,0.008084,0.001256,-7.891127,-17.184425,-42.151085,,,,,,,5
1508446609.218812,-0.030315,0.095221,-0.090444,0.044438,-0.033887,0.017764,-0.030173,-0.095078,-0.995012,0.005881,0.001785,0.000490,-7.912436,-17.235189,-42.126358,,,,,,,5
,,,,,,,,,,,,,,,,42.293442,-71.264337,58.765549,-1.000000,-1.000000,1508446609.205817,5
1508446609.238843,-0.030644,0.095326,-0.090208,-0.007735,0.001163,0.007777,-0.030500,-0.095182,-0.994993,-0.003375,0.008817,0.022565,-7.957982,-17.279581,-42.099586,,,,,,,5
1508446609.258855,-0.029896,0.094922,-0.090056,-0.001386,0.077647,0.007888,-0.029757,-0.094779,-0.995053,-0.001447,0.006538,0.026731,-7.944820,-17.260128,-42.110050,,,,,,,5
1508446609.278846,-0.027699,0.094986,-0.089948,0.003923,0.121186,0.003706,-0.027571,-0.094844,-0.995110,0.006926,0.003276,-0.001853,-7.887457,-17.260227,-42.120785,,,,,,,5
1508446609.298876,-0.024751,0.094718,-0.089779,0.006030,0.119107,0.016498,-0.024638,-0.094576,-0.995213,0.006937,0.004641,-0.009212,-7.761160,-17.262783,-42.143196,,,,,,,5
1508446609.318886,-0.022914,0.095118,-0.089222,0.032643,0.075595,0.032656,-0.022809,-0.094975,-0.995218,0.004697,0.011311,-0.012594,-7.658978,-17.256666,-42.164391,,,,,,,5
1508446609.338896,-0.021979,0.094820,-0.088291,0.072020,0.026783,0.054239,-0.021879,-0.094678,-0.995267,-0.000307,0.011793,-0.006976,-7.623021,-17.247654,-42.174591,,,,,,,5
1508446609.358907,-0.022309,0.096158,-0.087061,0.089059,0.009783,0.056497,-0.022204,-0.096010,-0.995133,-0.004804,-0.000807,0.007492,-7.634143,-17.271069,-42.162998,,,,,,,5
1508446609.378916,-0.021810,0.098525,-0.085702,0.080493,0.073564,0.067122,-0.021703,-0.098365,-0.994914,-0.004909,-0.008812,0.019251,-7.648387,-17.291903,-42.151875,,,,,,,5
1508446609.398914,-0.019383,0.100298,-0.084267,0.018685,0.167099,0.072006,-0.019284,-0.100130,-0.994787,-0.004031,-0.014646,0.024069,-7.629387,-17.395258,-42.112774,,,,,,,5
1508446609.418939,-0.015941,0.100152,-0.082793,-0.051599,0.194754,0.071447,-0.015860,-0.099985,-0.994863,-0.002526,0.009455,0.007756,-7.466145,-17.462429,-42.114231,,,,,,,5
1508446609.438949,-0.012755,0.096922,-0.081551,-0.067533,0.161774,0.055319,-0.012695,-0.096770,-0.995226,-0.003983,0.026259,0.006975,-7.373214,-17.365963,-42.170456,,,,,,,5
1508446609.458960,-0.010211,0.094696,-0.080646,-0.041933,0.124516,0.037402,-0.010165,-0.094555,-0.995468,-0.005048,0.029094,0.006408,-7.290054,-17.272251,-42.223366,,,,,,,5
1508446609.478970,-0.008418,0.092384,-0.080098,-0.001446,0.111691,0.021755,-0.008382,-0.092253,-0.995700,-0.006358,0.021116,0.004535,-7.165987,-17.120037,-42.306511,,,,,,,5
1508446609.498972,-0.006015,0.092280,-0.079687,0.021971,0.123365,0.021958,-0.005989,-0.092149,-0.995727,0.001320,0.002107,0.000351,-7.110107,-17.073534,-42.334728,,,,,,,5
1508446609.518989,-0.003632,0.092694,-0.079385,0.010285,0.101033,0.013326,-0.003617,-0.092561,-0.995700,0.003449,-0.002455,-0.001812,-7.033218,-17.082020,-42.344147,,,,,,,5
1508446609.539001,-0.000362,0.093607,-0.079045,-0.008903,0.097917,0.029136,-0.000360,-0.093471,-0.995622,0.020105,-0.014073,-0.003295,-6.875530,-17.112823,-42.357605,,,,,,,5
1508446609.559012,0.001391,0.093179,-0.078429,-0.025933,0.084119,0.030050,0.001385,-0.093044,-0.995661,0.017322,-0.011692,0.002543,-6.775742,-17.114183,-42.373131,,,,,,,5
1508446609.579021,0.003044,0.092619,-0.077872,-0.026992,0.086230,0.025784,0.003031,-0.092487,-0.995709,0.015264,-0.010831,0.005109,-6.745357,-17.100969,-42.383312,,,,,,,5
1508446609.599033,0.004620,0.092155,-0.077587,-0.021633,0.072361,0.009847,0.004600,-0.092025,-0.995746,0.018730,-0.011186,0.009220,-6.649080,-17.063465,-42.413631,,,,,,,5
1508446609.619043,0.007083,0.092153,-0.077331,-0.019518,0.059661,0.022631,0.007053,-0.092023,-0.995732,0.030972,-0.009753,0.005787,-6.544161,-17.061621,-42.430691,,,,,,,5
1508446609.639048,0.007600,0.091825,-0.076906,-0.014158,0.004399,0.017310,0.007568,-0.091696,-0.995758,0.028046,-0.001535,0.000534,-6.518907,-17.047585,-42.440216,,,,,,,5
1508446609.659040,0.007103,0.091645,-0.076620,-0.007740,-0.035992,0.012009,0.007073,-0.091517,-0.995778,0.018409,-0.002599,-0.001826,-6.533124,-17.032400,-42.444126,,,,,,,5
1508446609.679073,0.006801,0.091516,-0.076530,-0.014110,-0.042390,0.003433,0.006772,-0.091389,-0.995792,0.014468,-0.001827,0.000080,-6.546490,-17.027388,-42.444077,,,,,,,5
1508446609.699073,0.006812,0.090989,-0.076604,-0.025816,-0.025414,-0.005168,0.006783,-0.090863,-0.995840,0.004981,0.003568,0.006491,-6.551205,-17.017876,-42.447166,,,,,,,5
1508446609.719096,0.006095,0.090286,-0.076727,-0.023685,-0.016928,-0.008339,0.006070,-0.090163,-0.995908,-0.006254,0.001662,0.007658,-6.569993,-16.980026,-42.459419,,,,,,,5
1508446609.739105,0.005407,0.090090,-0.076879,0.000807,-0.015887,-0.010265,0.005385,-0.089968,-0.995930,-0.010100,0.000262,0.007267,-6.588727,-16.966671,-42.461857,,,,,,,5
1508446609.759101,0.004787,0.090661,-0.077004,0.014642,-0.012696,-0.006954,0.004767,-0.090537,-0.995882,-0.010093,-0.009957,0.002275,-6.612377,-16.967552,-42.457825,,,,,,,5
1508446609.779126,0.004784,0.091817,-0.077130,-0.000268,-0.005244,-0.004942,0.004764,-0.091688,-0.995776,0.005398,-0.013079,0.001895,-6.640916,-17.021688,-42.431694,,,,,,,5
1508446609.799136,0.005156,0.091914,-0.077338,-0.017291,-0.010564,-0.010411,0.005135,-0.091784,-0.995766,0.007744,-0.001966,0.006187,-6.624848,-17.046389,-42.424290,,,,,,,5
1508446609.819146,0.005152,0.091382,-0.077605,-0.017284,-0.019069,-0.012546,0.005130,-0.091255,-0.995814,0.002194,0.005103,0.008052,-6.609056,-17.038137,-42.430069,,,,,,,5
1508446609.839158,0.004623,0.090767,-0.077838,-0.018352,-0.018003,-0.011490,0.004604,-0.090642,-0.995873,-0.004619,0.003102,0.004631,-6.622008,-17.008541,-42.439919,,,,,,,5
1508446609.859167,0.004050,0.090293,-0.078024,-0.027941,-0.012679,-0.009435,0.004033,-0.090170,-0.995918,-0.004750,-0.002420,0.004463,-6.644884,-16.984953,-42.445789,,,,,,,5
1508446609.879177,0.003644,0.089726,-0.078228,-0.024745,-0.008440,-0.011535,0.003629,-0.089606,-0.995971,-0.003537,-0.000223,0.005492,-6.661176,-16.969614,-42.449375,,,,,,,5
1508446609.899189,0.003196,0.089527,-0.078424,-0.007710,-0.013753,-0.009269,0.003184,-0.089407,-0.995990,-0.003901,-0.002436,-0.000729,-6.676976,-16.951475,-42.454140,,,,,,,5
1508446609.919199,0.002457,0.089631,-0.078480,0.009325,-0.037107,-0.001693,0.002447,-0.089511,-0.995983,-0.008597,-0.002927,-0.005543,-6.706760,-16.955545,-42.447815,,,,,,,5
1508446609.939209,0.001252,0.090132,-0.078475,0.039149,-0.072168,0.001721,0.001247,-0.090010,-0.995940,-0.010082,0.004378,-0.005647,-6.724488,-16.960524,-42.443024,,,,,,,5
1508446609.959220,-0.000772,0.091144,-0.078265,0.074261,-0.073201,0.015852,-0.000769,-0.091017,-0.995849,-0.016886,0.006209,0.001800,-6.837436,-17.005074,-42.407135,,,,,,,5
1508446609.979231,-0.002230,0.093092,-0.077680,0.066781,-0.042308,0.032815,-0.002220,-0.092958,-0.995668,-0.009758,-0.014464,0.000337,-6.911949,-17.085884,-42.362549,,,,,,,5
1508446609.999240,-0.002488,0.094229,-0.077136,0.008221,-0.003008,0.021714,-0.002477,-0.094090,-0.995561,0.005315,-0.015087,0.014161,-6.941422,-17.116652,-42.345306,,,,,,,5
1508446610.019252,-0.001739,0.094297,-0.076960,-0.031161,0.040501,0.002256,-0.001731,-0.094158,-0.995556,0.008186,-0.006413,0.028271,-6.920691,-17.151735,-42.334503,,,,,,,5
1508446610.039263,-0.000821,0.093688,-0.077015,-0.032223,0.069150,-0.007313,-0.000817,-0.093551,-0.995614,-0.010276,-0.000474,0.018808,-6.887999,-17.126186,-42.350178,,,,,,,5
1508446610.059272,0.000709,0.093054,-0.077215,-0.032223,0.077642,-0.009436,0.000706,-0.092920,-0.995673,-0.016910,-0.001105,0.011939,-6.856816,-17.113110,-42.360519,,,,,,,5
1508446610.079267,0.001740,0.092520,-0.077314,-0.024773,0.068091,-0.005123,0.001733,-0.092388,-0.995722,-0.005075,0.005352,-0.002661,-6.775147,-17.077240,-42.388130,,,,,,,5
1508446610.099293,0.002937,0.091997,-0.077317,-0.000288,0.041555,0.004642,0.002925,-0.091868,-0.995767,0.014516,0.017252,0.003763,-6.717887,-17.050247,-42.408108,,,,,,,5
1508446610.119300,0.005618,0.091535,-0.077335,0.016751,0.008643,0.011145,0.005594,-0.091408,-0.995798,0.034552,0.007622,0.004526,-6.649543,-17.033829,-42.425472,,,,,,,5
1508446610.139292,0.005462,0.091723,-0.077167,0.002933,-0.015805,0.004624,0.005439,-0.091594,-0.995782,0.045419,-0.011891,0.005288,-6.600571,-17.036892,-42.431889,,,,,,,5
1508446610.159325,0.004788,0.091323,-0.077392,-0.035336,-0.048808,-0.021270,0.004768,-0.091196,-0.995822,0.047280,-0.009329,-0.000806,-6.621391,-17.028738,-42.431915,,,,,,,5
1508446610.179329,0.002973,0.090198,-0.078247,-0.063988,-0.126459,-0.054573,0.002961,-0.090076,-0.995930,0.045623,0.006153,-0.011958,-6.655591,-17.003162,-42.436825,,,,,,,5
1508446610.199323,0.000819,0.088489,-0.079659,-0.054348,-0.197681,-0.067324,0.000816,-0.088374,-0.996087,0.013986,0.017298,-0.004630,-6.732300,-16.926386,-42.455410,,,,,,,5
1508446610.219356,-0.003330,0.087920,-0.080901,-0.009639,-0.216788,-0.056322,-0.003317,-0.087806,-0.996132,0.004462,0.014000,-0.004494,-6.887151,-16.901451,-42.440506,,,,,,,5
1508446610.239356,-0.007298,0.088204,-0.081705,0.023311,-0.189098,-0.031540,-0.007270,-0.088090,-0.996086,-0.009835,0.002076,0.003578,-6.969387,-16.903482,-42.426270,,,,,,,5
1508446610.259378,-0.010823,0.088972,-0.082143,0.022204,-0.140193,-0.020865,-0.010780,-0.088855,-0.995986,-0.007790,-0.015958,0.016036,-7.201756,-16.948959,-42.369278,,,,,,,5
1508446610.279387,-0.013452,0.089730,-0.082467,0.006211,-0.107239,-0.016713,-0.013398,-0.089610,-0.995887,-0.008224,-0.012532,0.015845,-7.300908,-16.965076,-42.345852,,,,,,,5
1508446610.299398,-0.015499,0.089765,-0.082862,-0.002302,-0.103000,-0.021039,-0.015436,-0.089644,-0.995854,-0.012884,-0.009462,0.010716,-7.377925,-16.991890,-42.321747,,,,,,,5
1508446610.319409,-0.017678,0.090022,-0.083397,-0.013997,-0.092412,-0.032839,-0.017605,-0.089900,-0.995795,-0.006702,-0.010670,0.006720,-7.474787,-16.991859,-42.304760,,,,,,,5
1508446610.339396,-0.019062,0.089524,-0.084266,-0.032085,-0.061651,-0.048936,-0.018984,-0.089404,-0.995815,-0.000807,-0.007871,0.007167,-7.530764,-17.001205,-42.291073,,,,,,,5
1508446610.359428,-0.019742,0.088749,-0.085404,-0.041667,-0.030872,-0.058575,-0.019663,-0.088633,-0.995870,0.001689,-0.002005,0.007986,-7.556375,-16.986118,-42.292568,,,,,,,5
1508446610.379433,-0.020236,0.087881,-0.086446,-0.028918,-0.023393,-0.044622,-0.020156,-0.087768,-0.995937,-0.002366,0.005279,-0.003010,-7.566738,-16.950592,-42.304966,,,,,,,5
1508446610.399424,-0.021324,0.087191,-0.087008,-0.008728,-0.025452,-0.022097,-0.021241,-0.087081,-0.995975,-0.010161,0.003859,-0.000561,-7.588092,-16.920685,-42.313114,,,,,,,5
1508446610.419460,-0.022188,0.087216,-0.087192,0.008274,-0.017965,-0.004915,-0.022102,-0.087105,-0.995954,-0.012032,0.001382,0.000440,-7.614696,-16.911421,-42.312035,,,,,,,5
1508446610.439472,-0.022686,0.087655,-0.087120,0.000791,0.013937,0.003565,-0.022597,-0.087543,-0.995904,-0.001359,-0.004254,0.015863,-7.667040,-16.923683,-42.297680,,,,,,,5
1508446610.459482,-0.021900,0.087581,-0.087110,-0.017317,0.044739,-0.000820,-0.021814,-0.087469,-0.995928,0.003519,-0.000803,0.015200,-7.643233,-16.932333,-42.298531,,,,,,,5
1508446610.479469,-0.020934,0.087072,-0.087218,-0.025820,0.034102,-0.006222,-0.020854,-0.086962,-0.995993,0.003672,0.001818,0.008506,-7.623529,-16.924475,-42.305229,,,,,,,5
1508446610.499494,-0.020445,0.085921,-0.087409,-0.018347,0.004339,-0.010442,-0.020368,-0.085816,-0.996103,0.001935,0.009110,-0.002738,-7.573446,-16.879747,-42.332085,,,,,,,5
1508446610.519514,-0.020345,0.085451,-0.087683,-0.007692,0.003257,-0.014614,-0.020270,-0.085347,-0.996145,0.002127,0.006581,-0.001475,-7.563045,-16.843132,-42.348526,,,,,,,5
1508446610.539496,-0.019921,0.085396,-0.087960,-0.001321,0.026637,-0.011349,-0.019847,-0.085292,-0.996158,0.000957,-0.001744,0.005420,-7.558081,-16.841654,-42.350002,,,,,,,5
1508446610.559522,-0.018934,0.085695,-0.088104,-0.000278,0.042603,-0.002811,-0.018864,-0.085590,-0.996152,0.005604,-0.005947,0.004666,-7.511250,-16.847361,-42.356060,,,,,,,5
1508446610.579545,-0.017941,0.085937,-0.088092,0.000783,0.027753,0.003575,-0.017874,-0.085831,-0.996149,0.008245,-0.007416,0.003901,-7.477969,-16.854858,-42.358967,,,,,,,5
1508446610.599555,-0.017431,0.086120,-0.087952,0.002918,-0.004095,0.009957,-0.017365,-0.086014,-0.996143,0.012177,-0.003632,0.002948,-7.449781,-16.865553,-42.359676,,,,,,,5
1508446610.619551,-0.017340,0.086166,-0.087833,0.000805,-0.026412,0.006729,-0.017274,-0.086059,-0.996140,0.005907,0.001785,0.002503,-7.434758,-16.875586,-42.358322,,,,,,,5
1508446610.639575,-0.017817,0.086092,-0.087803,-0.004505,-0.027497,-0.000769,-0.017750,-0.085986,-0.996138,0.003407,-0.000257,0.004882,-7.446496,-16.871021,-42.358074,,,,,,,5
1508446610.659583,-0.018235,0.085784,-0.087868,0.002948,-0.016888,-0.003894,-0.018167,-0.085679,-0.996157,0.000268,0.005280,0.003878,-7.461685,-16.862932,-42.358627,,,,,,,5
1508446610.679600,-0.018576,0.086156,-0.087887,0.030622,-0.019008,0.001657,-0.018506,-0.086049,-0.996119,0.000043,-0.000209,0.000300,-7.479029,-16.866468,-42.354156,,,,,,,5
1508446610.699608,-0.019088,0.087132,-0.087757,0.055107,-0.032807,0.008237,-0.019014,-0.087022,-0.996025,0.000948,-0.001434,-0.003914,-7.499734,-16.900982,-42.336735,,,,,,,5
1508446610.719618,-0.019987,0.088927,-0.087461,0.079591,-0.054032,0.018005,-0.019907,-0.088809,-0.995850,0.002145,-0.007992,-0.000656,-7.524887,-16.947090,-42.313831,,,,,,,5
1508446610.739629,-0.021038,0.091037,-0.086920,0.081716,-0.059279,0.031822,-0.020949,-0.090912,-0.995639,0.003768,-0.008194,0.001590,-7.587227,-17.048338,-42.261997,,,,,,,5
1508446610.759623,-0.021978,0.092622,-0.086130,0.060398,-0.040115,0.040178,-0.021882,-0.092490,-0.995473,0.004075,-0.004159,0.010427,-7.636123,-17.124763,-42.222275,,,,,,,5
1508446610.779649,-0.022367,0.093581,-0.085366,0.041224,-0.009312,0.035784,-0.022267,-0.093444,-0.995375,0.004094,0.000412,0.013091,-7.658377,-17.145624,-42.209774,,,,,,,5
1508446610.799660,-0.022511,0.094241,-0.084651,0.050804,0.003423,0.033744,-0.022410,-0.094101,-0.995310,-0.003835,0.007187,0.009348,-7.682508,-17.191950,-42.186543,,,,,,,5
1508446610.819670,-0.022873,0.095325,-0.083761,0.065688,-0.001848,0.047704,-0.022767,-0.095180,-0.995200,-0.011016,0.004970,-0.003625,-7.711351,-17.222534,-42.168800,,,,,,,5
1508446610.839680,-0.023406,0.096552,-0.082449,0.062450,0.002484,0.071105,-0.023295,-0.096402,-0.995070,-0.013967,0.002728,-0.006990,-7.721394,-17.246841,-42.157028,,,,,,,5
1508446610.859691,-0.023914,0.097755,-0.080724,0.048564,0.049276,0.083803,-0.023797,-0.097599,-0.994941,-0.017371,-0.001354,0.017631,-7.781675,-17.306625,-42.121426,,,,,,,5
1508446610.879702,-0.023441,0.098968,-0.078874,0.051728,0.106640,0.084938,-0.023325,-0.098806,-0.994833,-0.024054,-0.003534,0.022208,-7.804308,-17.334801,-42.105648,,,,,,,5
1508446610.899699,-0.021836,0.100128,-0.077028,0.058101,0.130030,0.089250,-0.021725,-0.099961,-0.994754,-0.027073,-0.004959,0.003421,-7.785620,-17.363697,-42.097202,,,,,,,5
1508446610.919721,-0.020629,0.101477,-0.074999,0.066610,0.122612,0.096769,-0.020522,-0.101303,-0.994644,-0.024660,-0.002533,-0.028168,-7.726508,-17.423866,-42.083229,,,,,,,5
1508446610.939733,-0.018774,0.102887,-0.072915,0.074044,0.150239,0.100045,-0.018674,-0.102706,-0.994537,-0.028262,-0.002504,-0.022065,-7.697676,-17.457077,-42.074749,,,,,,,5
1508446610.959724,-0.015711,0.104604,-0.070676,0.082492,0.256498,0.109778,-0.015624,-0.104414,-0.994411,-0.044037,-0.009661,0.009868,-7.656059,-17.492716,-42.067543,,,,,,,5
1508446610.979748,-0.012316,0.107433,-0.067894,0.074952,0.387211,0.124722,-0.012245,-0.107226,-0.994159,-0.042214,-0.012006,0.040607,-7.504518,-17.611126,-42.045437,,,,,,,5
1508446610.999764,-0.004415,0.108941,-0.065275,0.055751,0.460520,0.124619,-0.004389,-0.108725,-0.994062,-0.036337,-0.006845,0.040220,-7.262762,-17.675800,-42.060749,,,,,,,5
1508446611.019774,0.004957,0.109780,-0.063037,0.033420,0.485946,0.101030,0.004928,-0.109559,-0.993968,0.017564,0.004732,0.026866,-6.997336,-17.694801,-42.097740,,,,,,,5
1508446611.039786,0.015750,0.110339,-0.061463,0.024953,0.460429,0.080712,0.015654,-0.110115,-0.993796,0.056078,0.000694,0.005636,-6.531869,-17.711226,-42.165573,,,,,,,5
1508446611.059796,0.023980,0.110695,-0.059874,0.009020,0.394561,0.077336,0.023830,-0.110469,-0.993594,0.063862,-0.001195,-0.009122,-6.126740,-17.719570,-42.222839,,,,,,,5
1508446611.079806,0.030839,0.110550,-0.058342,-0.018623,0.326575,0.073862,0.030646,-0.110325,-0.993423,0.056604,-0.003063,-0.012009,-5.908093,-17.713404,-42.256577,,,,,,,5
1508446611.099818,0.036335,0.110175,-0.056977,-0.017506,0.255364,0.064235,0.036106,-0.109953,-0.993281,0.045421,0.004194,-0.003942,-5.613443,-17.682392,-42.309700,,,,,,,5
1508446611.119822,0.040579,0.110143,-0.055632,0.005938,0.198006,0.069709,0.040322,-0.109921,-0.993122,0.035881,0.007137,0.004139,-5.438514,-17.666668,-42.339104,,,,,,,5
1508446611.139838,0.043760,0.110618,-0.054144,0.027244,0.151275,0.076238,0.043479,-0.110393,-0.992937,0.035424,0.010585,0.003984,-5.369981,-17.666965,-42.347729,,,,,,,5
1508446611.159849,0.046208,0.111237,-0.052754,0.028344,0.118305,0.065575,0.045906,-0.111008,-0.992759,0.051323,0.011932,0.002311,-5.221506,-17.687355,-42.357780,,,,,,,5
1508446611.179858,0.048018,0.112125,-0.051628,0.052873,0.084254,0.052974,0.047698,-0.111890,-0.992575,0.051529,0.011075,-0.000329,-5.153923,-17.711140,-42.356117,,,,,,,5
1508446611.199869,0.049198,0.113597,-0.050581,0.080565,0.050260,0.057436,0.048861,-0.113353,-0.992353,0.048505,0.005214,-0.003314,-5.128841,-17.732594,-42.350189,,,,,,,5
1508446611.219880,0.051161,0.115817,-0.049618,0.075264,0.023769,0.057390,0.050796,-0.115558,-0.992001,0.014314,-0.012951,-0.024921,-5.054132,-17.833687,-42.316708,,,,,,,5
1508446611.239890,0.050828,0.117609,-0.048506,0.051838,0.034398,0.056140,0.050455,-0.117338,-0.991809,-0.020777,-0.016985,-0.003750,-5.069033,-17.919544,-42.278637,,,,,,,5
1508446611.259881,0.052407,0.118712,-0.047220,0.052825,0.122639,0.075380,0.052014,-0.118434,-0.991599,-0.042935,-0.020543,0.016684,-5.050916,-17.947657,-42.268879,,,,,,,5
1508446611.279889,0.054144,0.120597,-0.045202,0.054863,0.217274,0.102088,0.053725,-0.120305,-0.991282,-0.057036,-0.017619,0.010249,-4.930686,-17.994068,-42.263340,,,,,,,5
1508446611.299922,0.058800,0.121582,-0.042860,0.033506,0.258798,0.125367,0.058332,-0.121283,-0.990903,-0.054685,-0.009851,0.002408,-4.891157,-18.045580,-42.245972,,,,,,,5
1508446611.319918,0.064420,0.122013,-0.040513,0.005825,0.319301,0.107084,0.063897,-0.121710,-0.990507,-0.032525,0.002524,0.009382,-4.760397,-18.057344,-42.255878,,,,,,,5
1508446611.339945,0.071179,0.122197,-0.038717,0.006908,0.360654,0.084765,0.070588,-0.121893,-0.990030,-0.030397,0.011481,0.015558,-4.404820,-18.051174,-42.297058,,,,,,,5
1508446611.359953,0.076906,0.122331,-0.036830,0.035642,0.367028,0.090331,0.076256,-0.122026,-0.989593,-0.042748,0.016176,0.010391,-4.129289,-18.058228,-42.321835,,,,,,,5
1508446611.379963,0.084479,0.123520,-0.034924,0.060081,0.412749,0.105474,0.083735,-0.123206,-0.988842,-0.053126,0.002219,0.018948,-3.975653,-18.058167,-42.336567,,,,,,,5
1508446611.399974,0.092338,0.125520,-0.032236,0.068479,0.504254,0.149267,0.091481,-0.125191,-0.987906,-0.050664,-0.011910,0.022559,-3.564345,-18.113918,-42.349377,,,,,,,5
1508446611.419985,0.100646,0.127817,-0.028819,0.065227,0.514982,0.180127,0.099656,-0.127469,-0.986823,-0.028810,-0.010562,0.025062,-3.291120,-18.189125,-42.339252,,,,,,,5
1508446611.439994,0.111260,0.129256,-0.025271,0.043904,0.578726,0.177869,0.110105,-0.128896,-0.985527,0.011889,-0.000452,0.029792,-3.029577,-18.232410,-42.340160,,,,,,,5
1508446611.460006,0.122737,0.130257,-0.022021,0.025826,0.590365,0.161758,0.121392,-0.129888,-0.984070,0.038185,0.004324,0.016464,-2.487813,-18.261118,-42.363083,,,,,,,5
1508446611.479990,0.133475,0.131051,-0.018878,0.016277,0.534055,0.158442,0.131938,-0.130676,-0.982607,0.048406,0.008041,0.009249,-2.062141,-18.272348,-42.381092,,,,,,,5
1508446611.500026,0.143072,0.131638,-0.015804,0.003538,0.481985,0.151909,0.141351,-0.131258,-0.981219,0.046164,0.007906,0.003741,-1.868161,-18.275471,-42.388741,,,,,,,5
1508446611.520038,0.151740,0.131953,-0.012868,-0.011332,0.434162,0.144297,0.149844,-0.131571,-0.979916,0.061490,0.009150,-0.002353,-1.344575,-18.269800,-42.411022,,,,,,,5
1508446611.540049,0.159439,0.132178,-0.010091,-0.004893,0.378873,0.131531,0.157379,-0.131793,-0.978704,0.055679,0.014133,-0.004892,-1.114504,-18.259514,-42.422119,,,,,,,5
1508446611.560058,0.165460,0.133209,-0.007458,0.055830,0.283262,0.140478,0.163246,-0.132815,-0.977605,0.039146,0.007647,-0.009456,-0.911005,-18.255039,-42.428905,,,,,,,5
1508446611.580070,0.169808,0.135551,-0.004791,0.105881,0.217421,0.154683,0.167443,-0.135136,-0.976576,0.030021,-0.015437,-0.007738,-0.640929,-18.332796,-42.400307,,,,,,,5
1508446611.600079,0.173751,0.137783,-0.001955,0.062213,0.229144,0.158591,0.171240,-0.137348,-0.975609,0.032038,-0.029583,-0.003487,-0.548474,-18.396271,-42.374104,,,,,,,5
1508446611.620063,0.178713,0.138564,0.001168,-0.017675,0.291866,0.159044,0.176060,-0.138121,-0.974641,0.023037,-0.027375,0.005464,-0.445856,-18.433962,-42.358925,,,,,,,5
1508446611.640088,0.184763,0.138088,0.004425,-0.064534,0.347098,0.149116,0.181964,-0.137649,-0.973623,0.031842,0.000488,0.030813,-0.155056,-18.402798,-42.374535,,,,,,,5
1508446611.660110,0.191891,0.137432,0.007454,-0.053884,0.386354,0.136457,0.188918,-0.136999,-0.972389,0.037050,0.006567,0.032830,0.035124,-18.361839,-42.392570,,,,,,,5
1508446611.680115,0.200711,0.136953,0.009845,-0.022951,0.332107,0.119634,0.197500,-0.136525,-0.970750,0.056010,0.012517,0.024003,0.241577,-18.328064,-42.406506,,,,,,,5
1508446611.700108,0.206106,0.137043,0.011910,-0.015406,0.255508,0.088761,0.202731,-0.136614,-0.969658,0.099805,0.004610,0.007622,0.677544,-18.289682,-42.418354,,,,,,,5
1508446611.720141,0.209963,0.137075,0.013224,-0.005710,0.164008,0.050441,0.206469,-0.136646,-0.968865,0.117887,0.000751,0.007210,0.841290,-18.278662,-42.420170,,,,,,,5
1508446611.740152,0.211754,0.137513,0.013860,0.027399,0.049170,0.025073,0.208191,-0.137080,-0.968435,0.107605,0.011424,0.017721,0.916349,-18.280825,-42.417686,,,,,,,5
1508446611.760159,0.211620,0.138584,0.013819,0.065811,-0.031668,0.001905,0.208031,-0.138141,-0.968318,0.095024,-0.001920,0.024822,0.935783,-18.321865,-42.399551,,,,,,,5
1508446611.780175,0.210686,0.139826,0.013375,0.056270,-0.056156,-0.015228,0.207090,-0.139371,-0.968344,0.086886,-0.018924,0.026236,0.910769,-18.365513,-42.381207,,,,,,,5
1508446611.800178,0.209585,0.139976,0.012679,-0.015017,-0.063650,-0.042441,0.206019,-0.139519,-0.968551,0.092916,-0.019248,0.022033,0.879689,-18.399727,-42.367023,,,,,,,5
1508446611.820195,0.208019,0.138556,0.011758,-0.083091,-0.103019,-0.070716,0.204543,-0.138113,-0.969065,0.102464,-0.005090,0.026408,0.816225,-18.368877,-42.381672,,,,,,,5
1508446611.840191,0.204959,0.136327,0.010427,-0.095770,-0.206152,-0.097517,0.201639,-0.135905,-0.969985,0.108679,0.006114,0.020400,0.758945,-18.310146,-42.408150,,,,,,,5
1508446611.860215,0.199053,0.134334,0.008578,-0.066907,-0.373016,-0.115506,0.195959,-0.133930,-0.971423,0.115289,0.008869,0.011813,0.653228,-18.248825,-42.436329,,,,,,,5
1508446611.880225,0.197837,0.131925,0.005117,-0.050806,-0.542002,-0.143188,0.194841,-0.131543,-0.971974,0.108778,0.005658,-0.019054,0.430703,-18.149490,-42.481747,,,,,,,5
1508446611.900228,0.187620,0.130029,0.001828,-0.048563,-0.661090,-0.175202,0.184947,-0.129663,-0.974157,0.080968,0.012582,-0.015665,0.330057,-18.094786,-42.505981,,,,,,,5
1508446611.920247,0.174402,0.128768,-0.001710,-0.010203,-0.686639,-0.184488,0.172083,-0.128412,-0.976677,0.063192,0.010462,-0.003731,-0.042773,-18.063202,-42.520664,,,,,,,5
1508446611.940243,0.161702,0.128947,-0.005152,0.059984,-0.616458,-0.155107,0.159661,-0.128590,-0.978761,-0.023950,-0.008556,0.022157,-0.811821,-18.068478,-42.510700,,,,,,,5
1508446611.960267,0.151455,0.129712,-0.008228,0.052436,-0.483607,-0.139098,0.149609,-0.129349,-0.980248,-0.050946,-0.027038,0.012795,-1.238530,-18.125450,-42.476139,,,,,,,5
1508446611.980262,0.143589,0.129592,-0.010831,-0.016855,-0.365604,-0.125739,0.141896,-0.129229,-0.981410,-0.059728,-0.032117,0.006678,-1.491290,-18.152775,-42.456345,,,,,,,5
1508446612.000287,0.137939,0.127983,-0.013193,-0.083968,-0.261375,-0.128313,0.136377,-0.127634,-0.982401,-0.064294,-0.007864,0.011133,-1.793052,-18.119743,-42.458782,,,,,,,5
1508446612.020299,0.133933,0.125982,-0.015561,-0.075483,-0.191268,-0.129255,0.132475,-0.125649,-0.983190,-0.059446,0.001839,0.013738,-1.943870,-18.052111,-42.480949,,,,,,,5
1508446612.040290,0.130882,0.124745,-0.017943,-0.026533,-0.161521,-0.121375,0.129495,-0.124422,-0.983743,-0.043328,0.011507,0.008188,-1.998915,-18.025066,-42.489876,,,,,,,5
1508446612.060315,0.127861,0.124316,-0.020281,0.002209,-0.170015,-0.115821,0.126529,-0.123996,-0.984183,-0.008151,0.016910,-0.000696,-2.142580,-18.001471,-42.492882,,,,,,,5
1508446612.080330,0.124596,0.124118,-0.022631,0.007545,-0.182777,-0.118981,0.123318,-0.123800,-0.984615,0.001682,0.017095,-0.002583,-2.249133,-18.009581,-42.483936,,,,,,,5
1508446612.100318,0.121285,0.124185,-0.025125,0.025651,-0.176430,-0.124150,0.120056,-0.123866,-0.985009,-0.001755,0.009059,-0.000586,-2.333240,-18.021032,-42.474541,,,,,,,5
1508446612.120352,0.118248,0.124697,-0.027727,0.048006,-0.162634,-0.125020,0.117056,-0.124374,-0.985307,-0.009818,-0.009049,-0.004241,-2.461147,-18.062965,-42.449501,,,,,,,5
1508446612.140339,0.114849,0.126288,-0.030066,0.037330,-0.147710,-0.111254,0.113684,-0.125953,-0.985501,-0.010321,-0.019326,-0.004795,-2.529370,-18.097391,-42.430828,,,,,,,5
1508446612.160372,0.112214,0.126392,-0.032048,0.001089,-0.141243,-0.090254,0.111085,-0.126056,-0.985784,-0.010835,-0.021863,-0.003047,-2.624140,-18.166302,-42.395611,,,,,,,5
1508446612.180384,0.108857,0.126301,-0.033596,-0.029810,-0.132694,-0.079854,0.107777,-0.125965,-0.986163,-0.015873,-0.008022,0.011309,-2.754800,-18.170231,-42.385635,,,,,,,5
1508446612.200388,0.105620,0.125544,-0.034872,-0.035163,-0.107165,-0.070296,0.104594,-0.125215,-0.986601,-0.029689,0.007630,0.014921,-2.915476,-18.169241,-42.375309,,,,,,,5
1508446612.220403,0.102625,0.124556,-0.035888,-0.017105,-0.072073,-0.056278,0.101651,-0.124234,-0.987032,-0.029218,0.009092,0.015276,-2.946655,-18.156605,-42.378571,,,,,,,5
1508446612.240415,0.100557,0.124137,-0.036577,0.000933,-0.024207,-0.034798,0.099615,-0.123818,-0.987292,-0.027792,0.004357,0.006595,-3.120265,-18.115654,-42.383667,,,,,,,5
1508446612.260425,0.099929,0.124300,-0.037031,0.003021,0.021507,-0.024098,0.098993,-0.123980,-0.987334,-0.018014,-0.002439,0.003234,-3.150151,-18.125507,-42.377243,,,,,,,5
1508446612.280435,0.100160,0.124562,-0.037410,0.001941,0.043826,-0.020895,0.099218,-0.124240,-0.987279,-0.013951,-0.005277,0.001699,-3.134863,-18.127771,-42.377411,,,,,,,5
1508446612.300428,0.100334,0.125345,-0.037607,0.001930,0.039605,-0.012380,0.099380,-0.125017,-0.987165,-0.005737,-0.008025,0.004270,-3.117613,-18.156910,-42.366207,,,,,,,5
1508446612.320333,0.100871,0.125742,-0.037714,0.001919,0.031139,-0.002804,0.099905,-0.125411,-0.987062,-0.005011,-0.008607,0.006746,-3.104050,-18.174871,-42.359497,,,,,,,5
1508446612.340338,0.101385,0.126157,-0.037685,0.000840,0.039660,0.003582,0.100407,-0.125823,-0.986958,-0.001332,-0.006181,0.009664,-3.090808,-18.192266,-42.353001,,,,,,,5
1508446612.360343,0.102424,0.126832,-0.037591,-0.002368,0.065166,0.005705,0.101423,-0.126492,-0.986769,0.001253,-0.003742,0.014128,-3.047629,-18.224609,-42.342220,,,,,,,5
1508446612.380367,0.104298,0.126957,-0.037434,-0.001327,0.087502,0.013183,0.103271,-0.126616,-0.986561,0.003815,-0.000505,0.011571,-2.984198,-18.237949,-42.340996,,,,,,,5
1508446612.400367,0.106422,0.127117,-0.037105,0.003979,0.093904,0.021750,0.105365,-0.126775,-0.986320,0.006711,-0.001689,0.006644,-2.940345,-18.240334,-42.343037,,,,,,,5
1508446612.420388,0.109744,0.127325,-0.036861,0.007176,0.088597,0.021771,0.108637,-0.126981,-0.985938,0.018454,-0.002306,-0.000588,-2.779381,-18.247255,-42.350929,,,,,,,5
1508446612.440396,0.112457,0.127606,-0.036712,0.011460,0.071568,0.012211,0.111308,-0.127260,-0.985604,0.017736,-0.001249,-0.002265,-2.661724,-18.258684,-42.353558,,,,,,,5
1508446612.460407,0.114482,0.128026,-0.036683,0.013608,0.063045,0.004768,0.113297,-0.127677,-0.985323,0.010406,-0.003060,0.003100,-2.579407,-18.269394,-42.354034,,,,,,,5
1508446612.480418,0.116314,0.128645,-0.036746,0.014675,0.070472,0.001588,0.115093,-0.128291,-0.985036,0.006992,-0.005498,0.010518,-2.486916,-18.294514,-42.348721,,,,,,,5
1508446612.500407,0.118648,0.129173,-0.036810,0.005084,0.082173,0.003647,0.117383,-0.128814,-0.984697,0.013903,-0.003159,0.011263,-2.416402,-18.320290,-42.341663,,,,,,,5
1508446612.520438,0.120903,0.129023,-0.036732,-0.015155,0.082204,0.008804,0.119606,-0.128666,-0.984449,0.018364,0.001392,0.012174,-2.345527,-18.328560,-42.342068,,,,,,,5
1508446612.540448,0.123928,0.127824,-0.036775,-0.027915,0.063076,0.003359,0.122603,-0.127476,-0.984235,0.030565,0.017720,0.007794,-2.189800,-18.297205,-42.363964,,,,,,,5
1508446612.560460,0.125730,0.126881,-0.036887,-0.018304,0.032237,-0.005104,0.124391,-0.126541,-0.984131,0.031951,0.013992,0.000534,-2.064110,-18.237293,-42.396095,,,,,,,5
1508446612.580470,0.126717,0.126483,-0.037040,-0.000191,-0.009185,-0.000727,0.125369,-0.126146,-0.984058,0.031644,0.008150,-0.001553,-2.051986,-18.230312,-42.399685,,,,,,,5
1508446612.600482,0.127639,0.126606,-0.037238,0.010471,-0.038930,-0.000662,0.126274,-0.126268,-0.983927,0.026101,-0.000960,-0.011908,-1.991363,-18.222757,-42.405823,,,,,,,5
1508446612.620492,0.126934,0.126959,-0.037386,0.016878,-0.053827,-0.007009,0.125574,-0.126618,-0.983971,0.012091,-0.002670,-0.004997,-1.988884,-18.236691,-42.399948,,,,,,,5
1508446612.640502,0.126018,0.127333,-0.037492,0.010479,-0.056983,0.000389,0.124667,-0.126989,-0.984039,0.008222,-0.003596,-0.000169,-2.010853,-18.243967,-42.395782,,,,,,,5
1508446612.660505,0.125192,0.127204,-0.037505,-0.006557,-0.065464,0.002371,0.123857,-0.126861,-0.984157,0.007765,0.012313,0.015179,-2.069637,-18.257940,-42.386936,,,,,,,5
1508446612.680522,0.124028,0.126526,-0.037589,-0.021440,-0.071870,-0.009469,0.122721,-0.126188,-0.984386,0.007864,0.014585,0.017666,-2.102087,-18.246222,-42.390388,,,,,,,5
1508446612.700505,0.122919,0.125658,-0.037718,-0.029968,-0.061234,-0.007402,0.121643,-0.125328,-0.984630,0.002853,0.007408,0.016551,-2.133577,-18.218807,-42.400604,,,,,,,5
1508446612.720532,0.122252,0.125084,-0.037767,-0.032111,-0.049531,-0.003152,0.120995,-0.124758,-0.984782,0.005027,-0.002333,0.008311,-2.185361,-18.167965,-42.419781,,,,,,,5
1508446612.740555,0.121668,0.124827,-0.037782,-0.026788,-0.052711,-0.000981,0.120423,-0.124503,-0.984884,0.007567,-0.006478,0.004126,-2.210368,-18.152481,-42.425114,,,,,,,5
1508446612.760565,0.120777,0.124968,-0.037833,-0.008677,-0.068657,-0.001908,0.119544,-0.124643,-0.984974,0.008065,-0.011968,-0.002819,-2.230196,-18.153257,-42.423740,,,,,,,5
1508446612.780576,0.119214,0.125294,-0.037754,-0.004422,-0.090934,0.007693,0.117999,-0.124967,-0.985119,0.002271,-0.009204,-0.008274,-2.299101,-18.166348,-42.414455,,,,,,,5
1508446612.800586,0.117102,0.125178,-0.037472,-0.024656,-0.102587,0.013906,0.115920,-0.124852,-0.985380,0.001069,-0.002422,-0.005342,-2.388333,-18.170328,-42.407822,,,,,,,5
1508446612.820595,0.114888,0.124509,-0.037118,-0.027853,-0.095153,0.012820,0.113748,-0.124187,-0.985718,-0.005303,0.004482,0.001724,-2.458883,-18.152912,-42.411251,,,,,,,5
1508446612.840589,0.112868,0.123823,-0.036746,-0.017220,-0.072847,0.013989,0.111767,-0.123507,-0.986030,-0.008876,0.006258,0.006019,-2.572341,-18.113741,-42.421265,,,,,,,5
1508446612.860605,0.111399,0.123511,-0.036393,-0.011909,-0.052662,0.015113,0.110322,-0.123197,-0.986231,-0.010255,0.004423,-0.000158,-2.627621,-18.098618,-42.424332,,,,,,,5
1508446612.880628,0.110039,0.123111,-0.036115,-0.024672,-0.042071,0.004369,0.108986,-0.122801,-0.986429,-0.007332,0.000654,-0.003165,-2.696407,-18.081532,-42.427299,,,,,,,5
1508446612.900617,0.109079,0.122246,-0.036130,-0.036363,-0.033619,-0.010628,0.108050,-0.121942,-0.986638,-0.003802,0.008035,0.007024,-2.753832,-18.048529,-42.437664,,,,,,,5
1508446612.920634,0.108340,0.121308,-0.036336,-0.029967,-0.035762,-0.014836,0.107334,-0.121011,-0.986831,-0.005191,0.018502,0.007690,-2.783527,-18.002323,-42.455345,,,,,,,5
1508446612.940659,0.107568,0.120444,-0.036532,-0.014010,-0.030440,-0.009376,0.106583,-0.120153,-0.987017,-0.005234,0.019918,0.006808,-2.796276,-17.990913,-42.459347,,,,,,,5
1508446612.960670,0.107217,0.119586,-0.036611,-0.002306,-0.020751,-0.000724,0.106248,-0.119301,-0.987157,0.005569,0.013299,-0.004283,-2.831990,-17.939659,-42.478664,,,,,,,5
1508446612.980680,0.106963,0.119269,-0.036531,-0.008705,-0.028157,0.006671,0.106001,-0.118986,-0.987221,0.013048,0.009459,-0.007102,-2.835281,-17.914042,-42.489250,,,,,,,5
1508446613.000678,0.106676,0.118570,-0.036413,-0.035319,-0.022846,0.002196,0.105727,-0.118292,-0.987334,0.012926,0.008688,-0.008302,-2.848665,-17.909023,-42.490471,,,,,,,5
1508446613.020704,0.106683,0.116945,-0.036484,-0.059789,0.002596,-0.017153,0.105754,-0.116679,-0.987523,0.001241,0.010966,-0.001429,-2.853642,-17.837910,-42.520042,,,,,,,5
1508446613.040712,0.106767,0.115121,-0.036945,-0.055499,0.002527,-0.036283,0.105859,-0.114867,-0.987724,-0.001687,0.011031,-0.008186,-2.843977,-17.776237,-42.546509,,,,,,,5
1508446613.060700,0.106495,0.114164,-0.037673,-0.030985,-0.032557,-0.040366,0.105602,-0.113916,-0.987862,0.001591,0.000955,-0.008400,-2.834648,-17.730881,-42.566055,,,,,,,5
1508446613.080732,0.105970,0.114135,-0.038257,-0.013967,-0.068608,-0.018958,0.105083,-0.113887,-0.987921,0.020893,-0.012822,-0.008860,-2.853602,-17.700500,-42.577431,,,,,,,5
1508446613.100744,0.105956,0.114118,-0.038652,-0.019293,-0.084512,-0.012626,0.105070,-0.113871,-0.987924,0.037829,-0.003576,0.006921,-2.869403,-17.710819,-42.572079,,,,,,,5
1508446613.120734,0.106084,0.113590,-0.039307,-0.022441,-0.109003,-0.031837,0.105203,-0.113346,-0.987970,0.045218,0.000568,0.007425,-2.838299,-17.702652,-42.577557,,,,,,,5
1508446613.140765,0.105177,0.113475,-0.040370,-0.017058,-0.163241,-0.049934,0.104308,-0.113231,-0.988078,0.036119,-0.009266,0.011531,-2.863297,-17.689526,-42.581337,,,,,,,5
1508446613.160775,0.102627,0.113554,-0.041516,-0.019165,-0.206787,-0.048920,0.101787,-0.113310,-0.988332,0.024541,-0.010484,0.019643,-2.937243,-17.699711,-42.572067,,,,,,,5
1508446613.180784,0.099255,0.114073,-0.042092,-0.005399,-0.196022,-0.007273,0.098448,-0.113826,-0.988611,0.009782,-0.015111,0.020151,-3.015855,-17.721447,-42.557529,,,,,,,5
1508446613.200795,0.095209,0.114381,-0.042024,-0.004354,-0.197040,0.005512,0.094444,-0.114132,-0.988966,-0.018715,-0.012607,0.005018,-3.220778,-17.747885,-42.531487,,,,,,,5
1508446613.220804,0.091444,0.113998,-0.042046,-0.028826,-0.180083,-0.009583,0.090724,-0.113751,-0.989358,-0.029140,-0.008243,-0.000876,-3.345967,-17.741564,-42.524460,,,,,,,5
1508446613.240807,0.087553,0.113314,-0.042210,-0.047993,-0.148232,-0.017170,0.086880,-0.113072,-0.989781,-0.028973,-0.010387,-0.003673,-3.458101,-17.723434,-42.523048,,,,,,,5
1508446613.260828,0.084841,0.112408,-0.042536,-0.038411,-0.132316,-0.021338,0.084205,-0.112171,-0.990115,-0.038245,0.000996,0.001513,-3.668188,-17.675383,-42.525444,,,,,,,5
1508446613.280838,0.082625,0.111846,-0.042773,-0.019295,-0.092959,-0.004114,0.082015,-0.111613,-0.990362,-0.034392,-0.000158,0.008443,-3.765470,-17.649717,-42.527603,,,,,,,5
1508446613.300848,0.081040,0.111652,-0.042763,-0.005470,-0.074891,0.000272,0.080447,-0.111420,-0.990512,-0.039676,0.005875,0.007464,-3.802316,-17.642506,-42.527317,,,,,,,5
1508446613.320858,0.080090,0.111617,-0.042624,-0.003388,-0.024917,0.013104,0.079507,-0.111385,-0.990592,-0.052361,0.000637,-0.002282,-3.887773,-17.635933,-42.522312,,,,,,,5
1508446613.340868,0.080527,0.111194,-0.042236,-0.036451,0.055867,0.021410,0.079943,-0.110965,-0.990604,-0.064882,-0.012097,-0.010983,-3.890001,-17.622547,-42.527660,,,,,,,5
1508446613.360877,0.082743,0.109990,-0.041590,-0.075906,0.150461,0.028610,0.082149,-0.109769,-0.990557,-0.074535,-0.010745,-0.004225,-3.845800,-17.590843,-42.544804,,,,,,,5
1508446613.380888,0.084987,0.108621,-0.040839,-0.068460,0.224754,0.011692,0.084384,-0.108408,-0.990519,-0.000720,0.018884,0.021158,-3.751058,-17.510712,-42.586300,,,,,,,5
1508446613.400901,0.089195,0.107851,-0.041090,-0.018318,0.182080,-0.032645,0.088559,-0.107642,-0.990238,0.060794,0.019019,0.006717,-3.562202,-17.468594,-42.619797,,,,,,,5
1508446613.420900,0.091090,0.107641,-0.042198,-0.007537,0.026862,-0.064616,0.090438,-0.107434,-0.990090,0.078202,0.008282,-0.002585,-3.485096,-17.464417,-42.627884,,,,,,,5
1508446613.440916,0.090076,0.106935,-0.043439,-0.047938,-0.089975,-0.065038,0.089441,-0.106731,-0.990257,0.070395,-0.005757,-0.010933,-3.438148,-17.452774,-42.636467,,,,,,,5
1508446613.460932,0.087899,0.105549,-0.044282,-0.067150,-0.122770,-0.029020,0.087298,-0.105353,-0.990596,0.010740,-0.006418,-0.003667,-3.507954,-17.405140,-42.650246,,,,,,,5
1508446613.480920,0.085580,0.104493,-0.044096,-0.041693,-0.106673,0.021245,0.085009,-0.104303,-0.990906,-0.024676,-0.000327,0.003601,-3.581606,-17.365629,-42.660229,,,,,,,5
1508446613.500926,0.083733,0.103965,-0.043329,-0.025770,-0.076868,0.040565,0.083184,-0.103778,-0.991116,-0.027383,-0.000882,0.009686,-3.699201,-17.323883,-42.667168,,,,,,,5
1508446613.520966,0.082368,0.103416,-0.042487,-0.037483,-0.059879,0.036222,0.081836,-0.103232,-0.991285,-0.014697,0.009055,0.007536,-3.719121,-17.317629,-42.667976,,,,,,,5
