timestamp(unix),attitude_roll(radians),attitude_pitch(radians),attitude_yaw(radians),rotation_rate_x(radians/s),rotation_rate_y(radians/s),rotation_rate_z(radians/s),gravity_x(G),gravity_y(G),gravity_z(G),user_acc_x(G),user_acc_y(G),user_acc_z(G),magnetic_field_x(microteslas),magnetic_field_y(microteslas),magnetic_field_z(microteslas),latitude(degree),longitude(degree),altitude(meter),speed(m/s),course(degree),timestamp(unix),User Mark
1508446847.756126,0.020146,1.358454,-0.324624,0.033708,-0.053012,-0.037553,0.004245,-0.977540,-0.210708,-0.022647,0.001008,0.033706,1.363373,-44.212143,5.934073,,,,,,,5
,,,,,,,,,,,,,,,,42.293399,-71.264129,59.940109,-1.000000,-1.000000,1508446803.552044,5
1508446847.776136,0.016753,1.358669,-0.321157,0.028292,0.059655,-0.020451,0.003527,-0.977585,-0.210510,-0.022372,0.007325,-0.004135,1.338067,-44.211662,5.943423,,,,,,,5
,,,,,,,,,,,,,,,,42.293399,-71.264129,59.940109,-1.000000,-1.000000,1508446794.552044,5
,,,,,,,,,,,,,,,,42.293399,-71.264129,59.940109,-1.000000,-1.000000,1508446803.552044,5
1508446847.796147,0.018801,1.359676,-0.321193,0.060155,0.124535,0.006480,0.003940,-0.977797,-0.209518,-0.019641,0.029722,-0.023209,1.337719,-44.208084,5.970059,,,,,,,5
1508446847.816159,0.019001,1.359917,-0.319669,-0.021829,0.050287,0.027042,0.003977,-0.977847,-0.209282,-0.022028,0.037128,-0.021827,1.311361,-44.202866,6.014372,,,,,,,5
1508446847.836169,0.015826,1.359640,-0.316985,0.006982,-0.072962,0.026122,0.003317,-0.977789,-0.209565,-0.005667,0.035223,-0.022262,1.290755,-44.205643,5.998400,,,,,,,5
1508446847.856164,0.014250,1.359315,-0.317281,0.051701,-0.101668,0.025394,0.002991,-0.977721,-0.209888,0.009780,0.022429,-0.014951,1.301559,-44.210697,5.958690,,,,,,,5
1508446847.876190,0.007151,1.360077,-0.312365,0.034594,-0.117434,0.071025,0.001496,-0.977881,-0.209158,-0.001694,0.020804,0.021277,1.276702,-44.205406,6.003127,,,,,,,5
1508446847.896202,0.001375,1.365425,-0.309051,0.120861,-0.159869,0.100431,0.000280,-0.978985,-0.203930,0.019938,0.027371,0.066967,1.232855,-44.202564,6.033159,,,,,,,5
1508446847.916186,-0.011843,1.368643,-0.299374,0.172002,-0.190739,0.090182,-0.002378,-0.979637,-0.200765,0.035077,0.021263,0.074239,1.214911,-44.164703,6.307836,,,,,,,5
1508446847.936218,-0.024977,1.371828,-0.289090,0.149566,-0.123715,0.114537,-0.004936,-0.980271,-0.197596,0.058495,0.005158,-0.035695,1.139811,-44.140678,6.487456,,,,,,,5
1508446847.956234,-0.028532,1.371292,-0.286177,0.143048,-0.013167,0.130496,-0.005654,-0.980165,-0.198103,0.043450,-0.022811,-0.070589,1.065707,-44.128704,6.580843,,,,,,,5
1508446847.976245,-0.035733,1.374009,-0.277983,0.129324,0.068323,0.039941,-0.006985,-0.980700,-0.195395,0.122769,-0.062147,-0.126153,1.050904,-44.132248,6.559436,,,,,,,5
,,,,,,,,,,,,,,,,42.293616,-71.264856,59.940109,-1.000000,-1.000000,1508446847.920164,5
,,,,,,,,,,,,,,,,42.293764,-71.265262,59.940109,-1.000000,-1.000000,1508446847.952582,5
1508446847.996258,-0.035665,1.376161,-0.276287,0.096361,0.096908,0.006683,-0.006896,-0.981118,-0.193286,0.182922,-0.039939,-0.115887,1.006294,-44.113010,6.694430,,,,,,,5
1508446848.016269,-0.033320,1.377578,-0.276994,0.060235,0.058570,-0.025586,-0.006397,-0.981391,-0.191912,0.274738,-0.006478,-0.093550,1.001568,-44.109814,6.716179,,,,,,,5
1508446848.036279,-0.025820,1.379934,-0.284939,0.180779,-0.056565,-0.122635,-0.004898,-0.981841,-0.189642,0.348495,0.057067,-0.084177,1.020789,-44.094273,6.814609,,,,,,,5
1508446848.056290,-0.008036,1.386577,-0.305719,0.408910,-0.196262,-0.240109,-0.001472,-0.983079,-0.183174,0.269157,0.131563,-0.085869,1.070532,-44.082680,6.881647,,,,,,,5
,,,,,,,,,,,,,,,,42.293840,-71.265470,59.940109,-1.000000,-1.000000,1508446848.027992,5
,,,,,,,,,,,,,,,,42.293878,-71.265575,59.940109,-1.000000,-1.000000,1508446848.035535,5
1508446848.076291,0.007840,1.394064,-0.330428,0.300340,-0.528450,-0.164595,0.001378,-0.984424,-0.175808,0.100001,0.143756,-0.099766,1.399574,-43.998257,7.347115,,,,,,,5
1508446848.096308,-0.007465,1.397498,-0.324108,0.131392,-0.356062,0.196154,-0.001287,-0.985021,-0.172428,0.008016,0.155172,-0.088620,1.578231,-43.954582,7.569005,,,,,,,5
1508446848.116323,-0.054135,1.401091,-0.280348,0.247955,-0.086503,0.439017,-0.009139,-0.985635,-0.168644,-0.174577,0.172128,-0.088130,1.491305,-43.943192,7.652284,,,,,,,5
1508446848.136334,-0.114176,1.406410,-0.220352,0.314946,-0.046034,0.477932,-0.018644,-0.986519,-0.162581,-0.219744,0.034737,-0.105332,1.043864,-43.909363,7.916050,,,,,,,5
1508446848.156344,-0.168074,1.410740,-0.165996,0.243795,0.020489,0.351755,-0.026661,-0.987218,-0.157128,-0.181805,-0.042704,-0.102485,0.737782,-43.878036,8.121524,,,,,,,5
,,,,,,,,,,,,,,,,42.293371,-71.264097,60.966457,-1.000000,-1.000000,1508446848.136793,5
1508446848.176357,-0.211074,1.413626,-0.120955,0.203339,0.105404,0.324867,-0.032793,-0.987674,-0.153050,-0.072477,-0.083767,-0.019771,0.410294,-43.840313,8.345301,,,,,,,5
1508446848.196367,-0.254907,1.417069,-0.073027,0.294884,0.224265,0.304417,-0.038611,-0.988207,-0.148174,-0.062784,0.007677,0.098308,0.032171,-43.797012,8.579395,,,,,,,5
1508446848.216364,-0.292480,1.422394,-0.029368,0.345058,0.311001,0.204811,-0.042631,-0.989009,-0.141579,0.001875,0.042277,0.122337,-0.195393,-43.758167,8.773286,,,,,,,5
1508446848.236389,-0.319500,1.426709,0.004500,0.255685,0.322591,0.163622,-0.045100,-0.989637,-0.136323,0.082851,0.008604,0.034074,-0.543116,-43.669884,9.188675,,,,,,,5
1508446848.256400,-0.353866,1.430940,0.044164,0.317439,0.167616,0.208734,-0.048306,-0.990236,-0.130764,0.050275,-0.016081,0.054119,-0.701020,-43.630966,9.361245,,,,,,,5
1508446848.276392,-0.397746,1.435629,0.088977,0.330353,-0.045980,0.191643,-0.052197,-0.990879,-0.124237,0.030132,-0.012295,0.066559,-0.906724,-43.566795,9.638359,,,,,,,5
1508446848.296422,-0.441430,1.439140,0.130505,0.216522,-0.170282,0.171444,-0.056086,-0.991346,-0.118693,-0.017126,0.016813,-0.053274,-1.092102,-43.486698,9.974977,,,,,,,5
1508446848.316432,-0.477930,1.440642,0.162424,0.155941,-0.286147,0.142108,-0.059695,-0.991542,-0.115244,-0.061765,-0.005940,-0.086416,-1.120873,-43.474918,10.023010,,,,,,,5
1508446848.336443,-0.514511,1.443362,0.192588,0.244461,-0.357591,0.078900,-0.062542,-0.991891,-0.110636,-0.026859,0.016397,0.008509,-1.226036,-43.418358,10.253229,,,,,,,5
1508446848.356455,-0.554033,1.447649,0.223800,0.309496,-0.474536,0.063377,-0.064627,-0.992427,-0.104461,-0.027247,0.057170,0.011626,-1.228440,-43.393059,10.359501,,,,,,,5
1508446848.376462,-0.612221,1.452236,0.272532,0.379603,-0.472118,0.157655,-0.067975,-0.992980,-0.096799,-0.108828,0.069182,0.025983,-1.189622,-43.332111,10.615957,,,,,,,5
1508446848.396476,-0.709720,1.457467,0.363302,0.681562,-0.292063,0.351938,-0.073690,-0.993585,-0.085782,-0.117548,0.049692,0.080929,-1.225564,-43.202847,11.126437,,,,,,,5
1508446848.416489,-0.893338,1.462820,0.541990,0.964495,-0.333025,0.528861,-0.083969,-0.994176,-0.067550,-0.108323,0.053579,0.058501,-1.324323,-43.128796,11.399076,,,,,,,5
1508446848.436490,-1.089955,1.464969,0.733303,0.822017,-0.266484,0.396771,-0.093652,-0.994406,-0.048856,-0.121329,0.044027,0.037702,-1.931059,-42.713795,12.790171,,,,,,,5
1508446848.456509,-1.186129,1.466475,0.830302,0.295509,0.139178,-0.028907,-0.096522,-0.994563,-0.039076,-0.035253,-0.009450,-0.003985,-2.099512,-42.568478,13.240177,,,,,,,5
1508446848.476521,-1.214671,1.469786,0.862832,0.226362,0.203829,-0.082666,-0.094511,-0.994903,-0.035157,-0.041063,-0.077225,-0.057464,-2.101256,-42.481392,13.516718,,,,,,,5
1508446848.496530,-1.271293,1.472495,0.923650,0.372107,0.181715,-0.004818,-0.093774,-0.995172,-0.028957,0.061013,0.038111,-0.070409,-2.103536,-42.427792,13.683682,,,,,,,5
1508446848.516542,-1.327217,1.474431,0.983536,0.252875,0.205087,-0.022820,-0.093376,-0.995360,-0.023205,0.071236,0.052032,-0.071369,-2.144866,-42.330482,13.975531,,,,,,,5
1508446848.536529,-1.368301,1.475751,1.028584,0.233725,0.120166,-0.007071,-0.092963,-0.995487,-0.019086,0.062553,0.054981,-0.116290,-2.195313,-42.246632,14.219295,,,,,,,5
1508446848.556564,-1.436083,1.476001,1.094904,0.360444,-0.212106,0.079968,-0.093796,-0.995510,-0.012713,-0.033173,0.004833,-0.089430,-2.208355,-42.189808,14.385033,,,,,,,5
1508446848.576563,-1.529954,1.474079,1.181871,0.420084,-0.447769,0.138843,-0.096486,-0.995327,-0.003943,0.006062,0.030071,-0.054803,-2.217375,-42.078197,14.706939,,,,,,,5
1508446848.596588,-1.632320,1.472273,1.274062,0.477776,-0.553256,0.057254,-0.098178,-0.995151,0.006048,0.101306,0.052707,-0.013448,-2.156582,-41.910728,15.186356,,,,,,,5
1508446848.616597,-1.739827,1.470995,1.371570,0.469345,-0.473829,-0.015158,-0.098216,-0.995024,0.016761,0.068507,0.002531,0.027245,-2.010848,-41.759090,15.617947,,,,,,,5
1508446848.636607,-1.820482,1.470277,1.447503,0.314850,-0.096783,-0.061932,-0.097238,-0.994952,0.024796,0.003885,-0.010068,0.071288,-1.932355,-41.688244,15.815874,,,,,,,5
1508446848.656620,-1.861636,1.471173,1.491633,0.134825,0.270677,-0.119572,-0.095282,-0.995042,0.028521,-0.108453,-0.018523,0.075819,-1.815569,-41.552746,16.182053,,,,,,,5
1508446848.676630,-1.878128,1.473026,1.514593,0.069863,0.293023,-0.119026,-0.093041,-0.995224,0.029530,-0.106254,-0.027939,0.031734,-1.814136,-41.530277,16.239782,,,,,,,5
1508446848.696640,-1.901230,1.474484,1.542397,0.135892,0.176219,-0.094081,-0.090962,-0.995366,0.031201,-0.026577,0.007527,0.027744,-1.806606,-41.509304,16.294157,,,,,,,5
1508446848.716652,-1.942943,1.474377,1.585648,0.233858,0.024387,-0.056121,-0.089680,-0.995355,0.035005,0.021214,0.051920,0.008436,-1.773021,-41.447247,16.455027,,,,,,,5
1508446848.736661,-2.005893,1.472635,1.647850,0.360589,-0.119002,-0.029629,-0.088873,-0.995186,0.041308,0.065389,0.048897,-0.028293,-1.763398,-41.428463,16.503284,,,,,,,5
1508446848.756673,-2.091399,1.469418,1.729428,0.475704,-0.273191,-0.055414,-0.087797,-0.994866,0.050339,0.080717,-0.032463,-0.080475,-1.669019,-41.258213,16.933979,,,,,,,5
1508446848.776686,-2.182872,1.465125,1.813189,0.447035,-0.480283,-0.041966,-0.086326,-0.994422,0.060602,0.074150,-0.081948,-0.119791,-1.604338,-41.180199,17.129007,,,,,,,5
1508446848.796689,-2.240167,1.461717,1.859673,0.227674,-0.586246,0.001927,-0.085372,-0.994057,0.067549,0.072325,-0.062172,-0.055021,-1.317810,-40.952686,17.689728,,,,,,,5
1508446848.816707,-2.279840,1.458633,1.887801,0.229757,-0.564930,0.022191,-0.084952,-0.993716,0.072877,0.062857,0.002124,-0.013368,-1.115037,-40.871292,17.890778,,,,,,,5
1508446848.836719,-2.329923,1.456180,1.928163,0.261908,-0.443317,-0.131840,-0.082965,-0.993439,0.078716,0.039432,0.089966,0.058399,-0.972051,-40.809189,18.040258,,,,,,,5
1508446848.856717,-2.396547,1.455593,1.987060,0.249295,-0.408615,-0.235198,-0.077936,-0.993371,0.084494,0.041422,0.032174,-0.018210,-0.633627,-40.694073,18.313286,,,,,,,5
1508446848.876721,-2.455178,1.453703,2.034326,0.264040,-0.631169,-0.079792,-0.074040,-0.993152,0.090367,-0.006053,0.016910,-0.039647,-0.378464,-40.626244,18.470266,,,,,,,5
1508446848.896724,-2.505489,1.449209,2.073992,0.317121,-0.569329,-0.007969,-0.072053,-0.992617,0.097566,-0.175017,0.112674,0.036849,-0.062885,-40.528702,18.687057,,,,,,,5
1508446848.916762,-2.548205,1.443020,2.111104,0.442612,-0.145651,-0.043879,-0.071255,-0.991848,0.105645,-0.189136,0.108364,0.025550,0.187475,-40.370739,19.025089,,,,,,,5
1508446848.936762,-2.584754,1.434272,2.142836,0.528710,-0.334308,0.094042,-0.071930,-0.990695,0.115540,-0.216583,0.099689,-0.037522,0.253408,-40.245770,19.287285,,,,,,,5
1508446848.956787,-2.629705,1.426399,2.181432,0.384264,-0.259600,-0.132820,-0.070484,-0.989593,0.125452,0.034687,-0.098023,-0.068720,0.389908,-39.952900,19.884657,,,,,,,5
1508446848.976795,-2.675369,1.426156,2.227602,0.029846,0.115992,-0.321792,-0.064792,-0.989558,0.128753,0.085666,-0.165502,-0.133789,0.559552,-39.861588,20.063057,,,,,,,5
1508446848.996790,-2.685274,1.428977,2.238102,-0.098354,-0.093213,-0.016362,-0.062283,-0.989960,0.126882,0.076779,-0.143188,-0.220281,0.736172,-39.858753,20.062988,,,,,,,5
1508446849.016820,-2.681731,1.429261,2.229079,-0.014240,-0.359632,0.060793,-0.062607,-0.990001,0.126409,0.098191,0.045909,-0.085805,0.808499,-39.895203,19.987614,,,,,,,5
1508446849.036828,-2.685000,1.427796,2.222526,0.095461,-0.545476,0.095629,-0.062833,-0.989793,0.127915,0.177076,0.142991,-0.103577,0.832318,-39.896877,19.983295,,,,,,,5
1508446849.056838,-2.695801,1.422689,2.220829,0.315910,-0.678344,0.106931,-0.063627,-0.989052,0.133145,0.091138,0.209908,-0.060712,1.034866,-39.848454,20.070263,,,,,,,5
1508446849.076850,-2.738903,1.413338,2.248705,0.631497,-0.819442,-0.093936,-0.061452,-0.987629,0.144265,-0.097498,0.149235,0.006919,1.336350,-39.648762,20.444447,,,,,,,5
1508446849.096860,-2.804899,1.401591,2.298920,0.675241,-0.780377,-0.156366,-0.055634,-0.985719,0.158944,-0.166107,-0.003112,-0.034310,1.439009,-39.583344,20.563896,,,,,,,5
1508446849.116872,-2.841017,1.392652,2.323575,0.357569,-0.471686,-0.028856,-0.052465,-0.984174,0.169259,-0.125361,-0.039309,-0.098474,2.092597,-39.163597,21.298342,,,,,,,5
1508446849.136884,-2.863749,1.389089,2.341390,0.175578,-0.140635,-0.169589,-0.049565,-0.983537,0.173779,-0.083568,-0.030791,-0.100033,2.214898,-39.076748,21.444988,,,,,,,5
1508446849.156888,-2.897291,1.387662,2.374992,0.120393,0.017159,-0.318989,-0.044049,-0.983278,0.176705,0.051251,-0.060820,-0.209512,2.572050,-38.918346,21.691757,,,,,,,5
1508446849.176904,-2.928909,1.387564,2.407413,0.052130,-0.028200,-0.237602,-0.038461,-0.983260,0.178103,0.030038,-0.027314,-0.223177,2.748421,-38.873882,21.749783,,,,,,,5
1508446849.196917,-2.948704,1.386454,2.422743,0.131863,-0.365480,-0.071099,-0.035138,-0.983057,0.179900,-0.019489,0.069376,-0.171081,2.996523,-38.826309,21.801933,,,,,,,5
1508446849.216927,-2.967048,1.381283,2.430829,0.336305,-0.589537,-0.013149,-0.032714,-0.982096,0.185519,-0.014985,0.096873,-0.073611,3.167900,-38.761829,21.892250,,,,,,,5
1508446849.236938,-2.995965,1.374154,2.446207,0.377050,-0.700499,-0.143860,-0.028352,-0.980728,0.193309,0.024049,0.051681,-0.057979,3.463498,-38.608707,22.116907,,,,,,,5
1508446849.256946,-3.029089,1.366624,2.465268,0.460179,-0.759069,-0.171966,-0.022763,-0.979229,0.201475,0.102642,0.038021,-0.123350,3.985195,-38.385880,22.414909,,,,,,,5
1508446849.276960,-3.069283,1.354698,2.490009,0.711533,-0.817720,-0.197619,-0.015491,-0.976742,0.213860,0.018406,0.061901,-0.149330,4.359505,-38.196884,22.666679,,,,,,,5
1508446849.296961,-3.105297,1.338239,2.509848,0.886073,-0.803859,-0.156772,-0.008363,-0.973080,0.230315,-0.223113,0.032513,-0.120238,1.525498,-39.957977,19.881897,,,,,,,5
1508446849.316986,-3.129113,1.321098,2.523590,0.796318,-0.295891,-0.120928,-0.003084,-0.968987,0.247092,-0.414824,-0.025932,-0.064140,2.029122,-39.505440,20.723408,,,,,,,5
1508446849.336993,-3.136924,1.307391,2.532431,0.660865,0.166293,-0.121696,-0.001215,-0.965509,0.260367,-0.385808,-0.030508,-0.132651,2.136730,-39.269382,21.156721,,,,,,,5
1508446849.356989,3.135842,1.292429,2.547382,0.810164,0.181665,-0.259934,0.001580,-0.961505,0.274782,-0.274835,-0.104214,-0.205248,3.723266,-37.763905,22.558926,,,,,,,5
1508446849.377016,3.112231,1.275353,2.573403,0.846832,0.007726,-0.476971,0.008548,-0.956673,0.291038,-0.241061,-0.515098,-0.230522,3.936476,-37.261730,23.344120,,,,,,,5
1508446849.397026,3.091820,1.265047,2.597805,0.015670,0.351213,-0.198220,0.014976,-0.953622,0.300635,-0.159522,-0.674674,-0.180914,4.024341,-37.153015,23.501879,,,,,,,5
1508446849.417037,3.121908,1.286758,2.590960,-1.669207,1.707185,0.278680,0.005516,-0.959932,0.280180,0.035103,-0.489745,-0.087218,4.033064,-37.044468,23.671125,,,,,,,5
1508446849.437049,-3.096028,1.328569,2.568220,-2.165555,2.231005,0.229195,-0.010926,-0.970806,0.239617,0.341217,-0.038197,-0.242150,3.297135,-37.631317,22.844986,,,,,,,5
1508446849.457059,-3.049539,1.363862,2.555771,-1.432861,1.284724,-0.193500,-0.018887,-0.978665,0.204591,0.472057,0.217450,-0.459123,1.925812,-38.787354,20.993166,,,,,,,5
1508446849.477070,-3.101586,1.386205,2.619877,-0.978377,0.105727,-0.980680,-0.007341,-0.983011,0.183398,0.418062,0.177988,-0.586169,1.697177,-39.331020,19.976753,,,,,,,5
1508446849.497082,3.040939,1.404342,2.750181,-0.900965,-0.913571,-1.118164,0.016649,-0.986178,0.164848,0.173659,-0.040265,-0.520485,2.000347,-39.510742,19.590309,,,,,,,5
1508446849.517087,2.893365,1.417644,2.886507,-0.824154,-0.305797,-0.768899,0.037481,-0.988295,0.147879,-0.333562,-0.223756,0.439051,3.935563,-39.996918,18.265774,,,,,,,5
1508446849.537102,2.828283,1.434733,2.959752,-1.131735,0.777674,0.064141,0.041807,-0.990758,0.129040,-0.398038,-0.345897,0.426669,4.295542,-40.192234,17.748611,,,,,,,5
1508446849.557115,2.843195,1.469281,2.972915,-2.012539,1.652088,0.570738,0.029793,-0.994852,0.096862,-0.512078,-0.407919,0.211396,3.624286,-40.795174,16.477211,,,,,,,5
1508446849.577115,2.843906,1.516065,3.003517,-2.293467,1.426917,0.540566,0.016045,-0.998503,0.052298,-0.127572,-0.051882,-0.130820,2.640992,-41.519295,14.766639,,,,,,,5
1508446849.597121,2.454009,1.559324,-2.867603,-2.147978,0.921371,0.294364,0.007281,-0.999934,0.008866,0.045987,0.018107,-0.109757,2.056897,-42.010853,13.406628,,,,,,,5
1508446849.617126,0.164205,1.535644,-0.565231,-2.185499,0.432649,-0.028933,0.005745,-0.999382,-0.034672,0.307945,0.057747,-0.080898,1.590253,-42.686337,11.145771,,,,,,,5
1508446849.637158,0.112856,1.494520,-0.512081,-1.948567,-0.144861,-0.182867,0.008582,-0.997092,-0.075717,0.305963,0.056129,-0.020261,1.593564,-43.020943,9.774432,,,,,,,5
1508446849.657160,0.098297,1.459489,-0.506436,-1.628004,-0.539972,-0.112376,0.010901,-0.993812,-0.110542,0.180978,0.045158,0.084602,1.728033,-43.283680,8.509829,,,,,,,5
1508446849.677180,0.072548,1.430435,-0.487934,-1.379291,-0.257992,0.057056,0.010141,-0.990166,-0.139533,-0.085122,0.050606,0.155402,1.945487,-43.635399,6.406830,,,,,,,5
1508446849.697192,0.032289,1.405746,-0.450627,-1.137032,-0.067146,0.290249,0.005304,-0.986410,-0.164217,-0.168466,0.083990,0.224565,1.881685,-43.758865,5.522795,,,,,,,5
1508446849.717201,-0.005691,1.386583,-0.409177,-0.871173,0.282528,0.377888,-0.001043,-0.983081,-0.183171,-0.251414,0.153125,0.238621,1.622191,-43.880375,4.556487,,,,,,,5
1508446849.737213,-0.035564,1.371068,-0.367192,-0.724602,0.807446,0.435926,-0.007054,-0.980121,-0.198277,-0.198222,0.191073,0.230794,-4.305893,-39.859665,2.684083,,,,,,,5
1508446849.757225,-0.053679,1.355565,-0.327263,-0.779030,1.122923,0.417615,-0.011459,-0.976927,-0.213266,-0.066331,0.215941,0.202142,-4.606719,-39.856575,2.183854,,,,,,,5
1508446849.777235,-0.047871,1.339277,-0.310670,-0.827459,1.094257,0.111612,-0.010980,-0.973319,-0.229194,0.072671,0.249167,0.204948,-4.942844,-39.849602,1.454336,,,,,,,5
1508446849.797246,-0.021918,1.321946,-0.314977,-0.875033,1.090420,-0.081503,-0.005398,-0.969196,-0.246230,0.165966,0.262150,0.144927,-5.027185,-39.862755,0.474989,,,,,,,5
1508446849.817258,0.009105,1.305104,-0.324102,-0.811115,1.111545,-0.106513,0.002391,-0.964911,-0.262566,0.137716,0.259909,0.082452,-4.969852,-39.872581,-0.125496,,,,,,,5
1508446849.837268,0.031586,1.290922,-0.326538,-0.628049,0.897213,-0.005078,0.008724,-0.961090,-0.276097,0.085804,0.242356,0.071431,-4.901419,-39.875252,-0.691558,,,,,,,5
1508446849.857279,0.038446,1.282280,-0.321084,-0.302170,0.417214,0.094141,0.010936,-0.958667,-0.284320,-0.031475,0.193546,0.070804,-4.884148,-39.854858,-1.507738,,,,,,,5
1508446849.877286,0.033505,1.281210,-0.312885,0.093015,0.015517,0.115200,0.009566,-0.958362,-0.285396,-0.028410,0.202320,0.075572,-4.941189,-39.842056,-1.653110,,,,,,,5
1508446849.897301,0.027516,1.288091,-0.307524,0.486026,-0.031623,0.060912,0.007675,-0.960304,-0.278849,-0.008636,0.212898,0.071101,-5.008008,-39.835918,-1.599177,,,,,,,5
1508446849.917314,0.034548,1.301793,-0.313227,0.779059,0.188510,-0.132416,0.009180,-0.964036,-0.265613,0.012289,0.179979,0.022067,-5.037038,-39.852474,-0.972838,,,,,,,5
1508446849.937310,0.057992,1.316957,-0.326480,0.706303,0.762342,-0.094251,0.014555,-0.967955,-0.250700,-0.054319,0.106032,-0.112550,-4.943570,-39.872612,-0.522982,,,,,,,5
1508446849.957336,0.090508,1.328428,-0.339873,0.496485,1.092632,-0.153230,0.021693,-0.970772,-0.239020,-0.146799,-0.064384,-0.261285,-3.152232,-41.611950,-0.593070,,,,,,,5
1508446849.977325,0.130619,1.332962,-0.351926,0.057439,1.592403,-0.084073,0.030686,-0.971850,-0.233592,-0.137040,-0.212323,-0.390829,-2.975234,-41.628887,-0.163710,,,,,,,5
1508446849.997350,0.163682,1.329294,-0.351771,-0.281389,1.646122,0.036681,0.038972,-0.970980,-0.235965,-0.101090,-0.192488,-0.365094,-2.927397,-41.631725,-0.269327,,,,,,,5
1508446850.017359,0.174102,1.324748,-0.331972,-0.193302,1.324023,0.292703,0.042193,-0.969883,-0.239891,-0.034121,-0.025204,-0.235451,-2.942660,-41.628372,-0.511868,,,,,,,5
1508446850.037365,0.159856,1.326382,-0.299648,0.140114,0.540331,0.431150,0.038519,-0.970279,-0.238903,0.165110,-0.062710,-0.098453,-3.305428,-41.596680,-0.795885,,,,,,,5
1508446850.057390,0.138637,1.333046,-0.271909,0.345950,0.223283,0.327199,0.032547,-0.971870,-0.233257,0.188187,-0.126534,-0.080189,-3.560647,-41.577496,-0.690198,,,,,,,5
1508446850.077400,0.121378,1.342379,-0.253858,0.489973,-0.124392,0.265305,0.027417,-0.974026,-0.224770,0.172229,-0.318302,-0.007575,-3.817485,-41.558498,-0.401347,,,,,,,5
1508446850.097412,0.093435,1.355066,-0.225863,0.655626,0.098221,0.457430,0.019972,-0.976820,-0.213127,0.203142,-0.389284,0.405327,-4.140606,-41.529167,0.162830,,,,,,,5
1508446850.117425,0.053519,1.368740,-0.176372,0.610431,0.591625,0.588394,0.010735,-0.979656,-0.200397,0.132758,-0.276234,0.517642,-4.235730,-41.518829,0.296948,,,,,,,5
1508446850.137433,0.010901,1.377218,-0.125044,0.220145,0.126045,0.449598,0.002097,-0.981322,-0.192360,0.126626,0.120726,0.496590,-6.227499,-40.020790,-0.630207,,,,,,,5
1508446850.157445,-0.007785,1.381135,-0.110495,0.305258,-0.236828,-0.017397,-0.001468,-0.982068,-0.188521,0.100909,0.508130,0.468642,-6.532536,-39.974968,-0.412892,,,,,,,5
1508446850.177456,0.006847,1.398386,-0.122554,1.253983,0.307031,-0.193355,0.001175,-0.985174,-0.171554,0.022980,0.608694,0.314864,-6.502377,-39.981888,-0.101928,,,,,,,5
1508446850.197466,0.113317,1.432264,-0.220454,1.877814,0.733547,-0.860801,0.015614,-0.990420,-0.137204,-0.365895,0.135134,0.423688,-6.248675,-40.011185,0.949454,,,,,,,5
1508446850.217478,0.327241,1.462280,-0.406489,1.537241,1.815938,-0.644521,0.034812,-0.994118,-0.102556,-0.594840,-0.210106,0.454866,-5.465288,-40.052635,2.599911,,,,,,,5
1508446850.237485,0.493217,1.482202,-0.540263,0.931529,1.398926,0.009240,0.041891,-0.996078,-0.077933,-0.617865,-0.343827,0.161475,-5.270261,-40.027626,3.294863,,,,,,,5
1508446850.257500,0.557851,1.490561,-0.577067,0.182864,1.545012,0.052149,0.042428,-0.996783,-0.067998,-0.448098,-0.263715,0.072057,-5.340441,-39.979706,3.734354,,,,,,,5
1508446850.277512,0.595692,1.492837,-0.581426,0.162575,1.558938,0.081805,0.043697,-0.996963,-0.064466,0.005848,-0.008302,-0.087237,-5.585382,-39.946342,3.733075,,,,,,,5
1508446850.297515,0.677825,1.500902,-0.640980,0.632602,0.879592,0.005315,0.043795,-0.997558,-0.054399,0.076963,0.115280,-0.038863,-5.718462,-39.923092,3.779969,,,,,,,5
1508446850.317530,0.900718,1.511148,-0.848049,0.944817,0.937308,-0.150711,0.046723,-0.998222,-0.037023,0.092697,0.141837,-0.028346,-5.772933,-39.885979,4.077302,,,,,,,5
1508446850.337524,1.279789,1.518140,-1.207332,1.078933,1.006305,-0.146357,0.050419,-0.998614,-0.015101,-0.091557,0.104083,-0.073583,-5.726256,-39.780186,5.058592,,,,,,,5
1508446850.357541,1.706695,1.518326,-1.618634,1.073580,0.663576,-0.031668,0.051963,-0.998624,0.007105,-0.086143,0.109418,-0.048579,-5.730779,-39.704342,5.618343,,,,,,,5
1508446850.377558,2.080121,1.511861,-1.984915,1.028940,0.219830,0.049613,0.051425,-0.998264,0.028719,0.005948,0.064350,0.051420,-5.768944,-39.611984,6.201000,,,,,,,5
1508446850.397577,2.323921,1.502531,-2.226855,0.787198,0.100124,0.109282,0.049765,-0.997671,0.046652,0.081354,0.034704,0.064096,-5.873845,-39.402046,7.336148,,,,,,,5
1508446850.417566,2.464512,1.491367,-2.365245,0.752345,0.133536,-0.062404,0.049712,-0.996847,0.061843,0.078798,0.019384,0.058275,-5.924859,-39.309387,7.778860,,,,,,,5
1508446850.437598,2.559082,1.478050,-2.456545,0.776833,0.226916,-0.088750,0.050948,-0.995702,0.077340,0.065842,0.028844,0.051994,-7.451075,-36.176170,6.900366,,,,,,,5
1508446850.457610,2.630505,1.463735,-2.524015,0.805496,0.177192,-0.025731,0.052266,-0.994274,0.093202,-0.078771,0.100033,0.018630,-7.405468,-36.053150,7.561623,,,,,,,5
1508446850.477597,2.704128,1.446777,-2.593408,1.017459,0.256520,-0.093130,0.052405,-0.992320,0.112052,-0.169150,0.099024,-0.040962,-7.407593,-36.023357,7.700260,,,,,,,5
1508446850.497631,2.760116,1.426454,-2.644213,1.065299,0.360646,-0.080944,0.053551,-0.989601,0.133502,-0.157265,-0.015007,-0.020617,-7.405191,-35.795162,8.701619,,,,,,,5
1508446850.517643,2.796615,1.408205,-2.670734,0.823629,0.621792,-0.171115,0.054743,-0.986811,0.152339,-0.131479,-0.060873,-0.019435,-7.406304,-35.585922,9.520383,,,,,,,5
1508446850.537656,2.815762,1.394238,-2.674075,0.587206,0.870351,-0.214404,0.056222,-0.984454,0.166401,-0.094995,-0.071317,-0.120152,-7.407817,-35.496689,9.846720,,,,,,,5
1508446850.557664,2.819334,1.386068,-2.655532,0.084643,1.321663,-0.341721,0.058173,-0.982986,0.174224,-0.091559,-0.006836,-0.061569,-7.423500,-35.419617,10.108960,,,,,,,5
1508446850.577667,2.826894,1.380588,-2.640992,0.425291,0.866340,-0.171024,0.058521,-0.981965,0.179779,-0.087345,-0.089843,-0.246322,-7.486791,-35.430309,10.024470,,,,,,,5
1508446850.597682,2.832659,1.367407,-2.635153,0.703637,0.356951,-0.280910,0.061414,-0.979388,0.192427,-0.077695,-0.066709,-0.209914,-7.490026,-35.376404,10.210700,,,,,,,5
1508446850.617698,2.838998,1.347869,-2.645224,1.057280,-0.441605,-0.136983,0.065883,-0.975254,0.211041,0.029606,-0.086544,-0.271343,-7.357027,-35.252319,10.723652,,,,,,,5
1508446850.637711,2.849095,1.328590,-2.667703,0.963368,-0.641706,0.043097,0.069158,-0.970811,0.229658,0.127604,-0.233321,-0.207411,-7.133151,-34.983406,11.710174,,,,,,,5
1508446850.657721,2.867155,1.313228,-2.698103,0.713876,-0.471089,0.189166,0.069033,-0.967012,0.245197,0.170148,-0.219832,-0.290134,-7.801924,-32.661449,12.116969,,,,,,,5
1508446850.677729,2.876194,1.304394,-2.718176,0.395773,-0.553150,0.066162,0.069052,-0.964724,0.254045,0.074548,-0.012525,-0.376665,-7.793028,-32.469048,12.628958,,,,,,,5
1508446850.697723,2.871718,1.300243,-2.722172,0.093495,-0.345202,-0.056492,0.071256,-0.963623,0.257591,-0.260831,-0.034851,-0.385963,-7.674910,-32.357304,12.983141,,,,,,,5
1508446850.717754,2.851715,1.300185,-2.705155,-0.130836,-0.086793,-0.319011,0.076410,-0.963608,0.256168,-0.379190,-0.095825,-0.498600,-7.562417,-32.366661,13.025743,,,,,,,5
1508446850.737757,2.817976,1.303943,-2.664567,-0.517307,0.566028,-0.524009,0.083855,-0.964606,0.250009,-0.603646,-0.301874,-0.651147,-7.332191,-32.462551,12.918315,,,,,,,5
1508446850.757776,2.771755,1.317724,-2.591113,-1.288322,1.647084,-0.754217,0.090503,-0.968148,0.233451,-0.512973,-0.573784,-0.534095,-7.129068,-32.785168,12.197149,,,,,,,5
1508446850.777767,2.691252,1.344021,-2.464778,-2.051899,2.284558,-0.848411,0.097865,-0.974396,0.202420,-0.382610,-0.502731,-0.391584,-7.054740,-33.137741,11.250858,,,,,,,5
1508446850.797797,2.580558,1.375851,-2.307669,-2.166169,1.937206,-0.553618,0.103067,-0.981058,0.164017,-0.212351,-0.233587,-0.069276,-6.986750,-33.683346,9.543501,,,,,,,5
1508446850.817809,2.450519,1.402012,-2.146618,-1.711443,1.078239,-0.353536,0.107067,-0.985790,0.129442,-0.156933,-0.057240,0.144423,-6.933881,-34.208652,7.493356,,,,,,,5
1508446850.837814,2.326351,1.418253,-2.008473,-1.137558,0.465612,-0.170386,0.110605,-0.988388,0.104192,-0.284524,-0.132813,0.433817,-6.859922,-34.406845,6.600876,,,,,,,5
1508446850.857831,2.249861,1.431481,-1.913115,-0.932024,1.284733,0.182231,0.108060,-0.990311,0.087217,-0.443677,-0.212997,0.611117,-6.842728,-34.559765,5.767209,,,,,,,5
1508446850.877842,2.160811,1.450578,-1.787747,-1.443557,1.852630,0.279589,0.099653,-0.992782,0.066726,-0.606443,-0.213944,0.201371,-7.720386,-32.962482,6.212616,,,,,,,5
1508446850.897841,1.954514,1.468232,-1.545023,-1.552809,1.805160,0.055055,0.094939,-0.994745,0.038330,-0.623595,-0.165228,-0.125412,-7.987251,-33.068546,5.234637,,,,,,,5
1508446850.917864,1.738151,1.476479,-1.286497,-1.277294,2.085699,0.120361,0.092862,-0.995555,0.015688,-0.322934,-0.031788,0.081618,-8.191090,-33.197655,3.943103,,,,,,,5
1508446850.937875,1.453886,1.484066,-0.959781,-1.627088,2.084875,0.439026,0.086030,-0.996241,-0.010104,-0.124589,0.064295,0.365176,-8.534342,-33.260323,2.375345,,,,,,,5
1508446850.957886,1.086280,1.482894,-0.548479,-1.705918,2.078626,0.462860,0.077685,-0.996139,-0.040891,-0.073931,0.165008,0.266416,-8.823058,-33.245953,1.259597,,,,,,,5
1508446850.977897,0.795933,1.471382,-0.217729,-1.499240,1.884071,0.451642,0.070916,-0.995062,-0.069438,-0.157846,0.153266,0.174693,-9.148893,-33.180935,-0.222558,,,,,,,5
1508446850.997894,0.598723,1.456391,0.019110,-1.303483,1.967059,0.517205,0.064337,-0.993463,-0.094299,-0.285849,0.113138,0.215500,-9.485611,-33.034225,-1.868023,,,,,,,5
1508446851.017905,0.464494,1.441435,0.197834,-1.136586,2.296501,0.576328,0.057789,-0.991644,-0.115333,-0.306477,0.078467,0.288124,-9.657373,-32.283333,-1.171378,,,,,,,5
1508446851.037928,0.374818,1.426785,0.339774,-1.016493,2.690616,0.591459,0.052541,-0.989648,-0.133550,-0.254079,0.038034,0.348211,-9.946015,-32.130657,-2.355466,,,,,,,5
1508446851.057922,0.315445,1.412891,0.458094,-0.917633,2.965756,0.605260,0.048785,-0.987559,-0.149491,-0.149875,-0.009542,0.366807,-10.207996,-31.903675,-3.847457,,,,,,,5
1508446851.077937,0.277776,1.399358,0.557023,-0.868559,2.972967,0.548175,0.046782,-0.985340,-0.164061,-0.102064,-0.010250,0.375151,-10.301203,-31.753511,-4.738180,,,,,,,5
1508446851.097963,0.257317,1.385157,0.634749,-0.870341,2.658137,0.439318,0.046972,-0.982818,-0.178498,-0.007818,0.010956,0.364716,-10.325796,-31.551168,-5.895118,,,,,,,5
1508446851.117975,0.237605,1.370140,0.701743,-0.888169,2.051617,0.456813,0.046913,-0.979936,-0.193713,0.140190,0.081254,0.338869,-10.259219,-31.293579,-7.232639,,,,,,,5
1508446851.137964,0.204426,1.356083,0.767500,-0.779282,1.243368,0.526309,0.043254,-0.977037,-0.208631,0.173329,0.117922,0.340955,-10.272374,-31.120182,-7.928628,,,,,,,5
1508446851.157997,0.161530,1.345660,0.825932,-0.524381,0.407161,0.521392,0.035903,-0.974764,-0.220334,0.268601,0.191393,0.315533,-10.413181,-30.886885,-8.626510,,,,,,,5
1508446851.178008,0.117810,1.340663,0.872796,-0.191861,-0.026650,0.463118,0.026811,-0.973636,-0.226526,0.403487,0.292362,0.235910,-10.742805,-30.654297,-9.041950,,,,,,,5
1508446851.197997,0.084391,1.342304,0.906972,0.194839,0.065084,0.324769,0.019093,-0.974009,-0.225703,0.448665,0.320231,0.134684,-10.952434,-30.568035,-9.082400,,,,,,,5
1508446851.218029,0.081637,1.351018,0.916758,0.524100,0.524993,0.047807,0.017778,-0.975946,-0.217287,0.333510,0.286859,-0.007902,-11.103306,-30.549994,-8.959081,,,,,,,5
1508446851.238042,0.105943,1.361747,0.909046,0.518719,1.035580,-0.065779,0.021945,-0.978229,-0.206366,0.067532,0.190158,-0.140970,-10.973917,-30.661968,-8.733128,,,,,,,5
1508446851.258025,0.151540,1.369302,0.890663,0.301443,1.578139,-0.182155,0.030212,-0.979769,-0.197840,-0.064484,0.078508,-0.272100,-10.777051,-30.739895,-8.704288,,,,,,,5
1508446851.278063,0.208931,1.369657,0.871560,-0.130120,2.159564,-0.153335,0.041438,-0.979840,-0.195441,-0.208278,-0.113636,-0.405572,-10.374029,-30.823004,-8.897897,,,,,,,5
1508446851.298075,0.244997,1.360379,0.884187,-0.614174,2.507112,0.124025,0.050662,-0.977944,-0.202630,-0.395876,-0.351463,-0.497550,-9.789075,-30.775261,-9.690614,,,,,,,5
1508446851.318062,0.252809,1.350531,0.917484,-0.517040,1.559923,0.256139,0.054649,-0.975839,-0.211544,-0.403923,-0.265417,-0.440815,-9.512260,-30.659756,-10.312464,,,,,,,5
1508446851.338097,0.235117,1.341821,0.953271,-0.531539,0.513766,0.322307,0.052877,-0.973899,-0.220735,-0.231526,-0.028038,-0.194518,-9.368979,-30.500837,-10.898250,,,,,,,5
1508446851.358093,0.188798,1.334538,1.005213,-0.420059,0.126980,0.614674,0.043929,-0.972221,-0.229907,-0.022399,0.315314,0.024158,-9.567519,-30.262474,-11.379622,,,,,,,5
1508446851.378103,0.129966,1.333381,1.066291,0.033479,-0.075873,0.698120,0.030481,-0.971949,-0.233208,0.005408,0.417262,0.130333,-9.850552,-30.107809,-11.547167,,,,,,,5
1508446851.398126,0.083759,1.346416,1.105482,1.001164,-0.674608,0.357484,0.018615,-0.974932,-0.221722,0.152833,0.392519,0.449810,-10.278648,-30.008932,-11.430839,,,,,,,5
1508446851.418121,0.075677,1.382104,1.090115,2.220552,-1.242482,-0.233396,0.014182,-0.982250,-0.187038,0.422189,-0.379963,0.395458,-10.674607,-30.316359,-10.189301,,,,,,,5
1508446851.438138,0.156692,1.423651,1.006571,1.637252,0.923523,-0.347306,0.022880,-0.989194,-0.144819,0.338388,-0.789691,-0.001818,-10.622879,-30.714077,-8.980565,,,,,,,5
1508446851.458162,0.158575,1.432118,1.045254,-0.167724,2.305662,0.606693,0.021829,-0.990400,-0.136500,-0.032617,-1.109088,-0.255849,-10.324615,-30.978443,-8.401730,,,,,,,5
1508446851.478174,0.104753,1.419750,1.139389,-0.858169,1.567294,0.488637,0.015734,-0.988614,-0.149648,0.036222,0.289060,0.405202,-10.308743,-30.736420,-9.265689,,,,,,,5
1508446851.498169,0.070723,1.412733,1.184934,0.071514,-0.065756,0.255509,0.011123,-0.987534,-0.157012,0.109208,0.458436,0.446304,-10.329370,-30.569326,-9.781157,,,,,,,5
1508446851.518183,0.045351,1.430624,1.197778,1.319046,-0.766156,0.048069,0.006334,-0.990192,-0.139570,0.150053,0.707691,0.478467,-10.453016,-30.540359,-9.740204,,,,,,,5
1508446851.538208,0.099502,1.466561,1.140341,2.061338,0.439790,-0.389955,0.010336,-0.994572,-0.103532,-0.033560,0.410161,0.750016,-10.577253,-30.922390,-8.293258,,,,,,,5
1508446851.558215,0.341927,1.508198,0.923342,2.209720,1.668963,-0.351599,0.020976,-0.998041,-0.058936,-0.226908,-0.047842,0.524970,-10.275068,-31.244753,-7.418828,,,,,,,5
1508446851.578228,0.804879,1.540819,0.489053,1.583914,1.134952,0.258253,0.021603,-0.999551,-0.020777,-0.358608,-0.309028,0.207407,-9.946441,-31.526962,-6.630954,,,,,,,5
1508446851.598241,1.498854,1.556922,-0.191208,0.672610,0.511169,0.368446,0.013838,-0.999904,-0.000997,-0.507017,-0.384343,-0.112635,-9.994608,-31.714262,-5.582473,,,,,,,5
1508446851.618253,2.384663,1.556769,-1.069455,0.583647,0.259806,0.168414,0.009632,-0.999902,0.010196,-0.155735,-0.028205,0.024197,-10.092900,-31.719452,-5.372188,,,,,,,5
1508446851.638263,3.034951,1.542319,-1.718444,1.186936,-0.008170,0.486226,0.003031,-0.999595,0.028312,-0.033411,0.121772,-0.005165,-10.158290,-31.738880,-5.128671,,,,,,,5
1508446851.658274,-2.987476,1.510960,-1.982225,1.637305,-0.238665,0.563237,-0.009180,-0.998210,0.059092,0.178949,0.296962,-0.069788,-10.641662,-31.751438,-3.930876,,,,,,,5
1508446851.678279,-2.983670,1.478861,-1.990577,1.508177,-0.175400,0.104379,-0.014438,-0.995777,0.090663,0.205737,0.072758,0.057545,-10.909181,-31.775698,-2.854030,,,,,,,5
1508446851.698296,-3.032224,1.451733,-1.942317,1.301908,0.024706,-0.119704,-0.012965,-0.992920,0.118072,0.142482,-0.016418,0.026673,-10.920610,-31.827696,-2.142154,,,,,,,5
1508446851.718292,-3.060325,1.428628,-1.913718,1.076069,-0.019523,-0.042811,-0.011502,-0.989911,0.141222,-0.082690,-0.009326,0.003172,-10.842347,-31.905582,-1.152384,,,,,,,5
1508446851.738303,-3.073991,1.409971,-1.900846,0.889721,-0.039554,-0.027328,-0.010817,-0.987095,0.159767,-0.136568,0.039082,0.017555,-10.826657,-31.924835,-0.662538,,,,,,,5
1508446851.758325,-3.086120,1.390583,-1.888535,1.059035,0.017626,-0.054635,-0.009938,-0.983806,0.178964,-0.164775,0.085048,0.037574,-10.806692,-31.938385,-0.075125,,,,,,,5
1508446851.778320,-3.099336,1.365992,-1.874839,1.328467,0.012076,-0.082228,-0.008591,-0.979101,0.203194,-0.078429,-0.001902,0.036018,-10.758177,-31.944172,0.825882,,,,,,,5
1508446851.798337,-3.112330,1.338842,-1.860853,1.330610,0.055560,-0.102408,-0.006726,-0.973219,0.229782,-0.016330,-0.046206,0.015228,-10.713214,-31.935925,1.474585,,,,,,,5
1508446851.818362,-3.116693,1.314792,-1.855590,1.147276,-0.008684,0.029123,-0.006304,-0.967410,0.253138,0.120394,-0.068342,-0.039378,-10.659462,-31.905704,2.291833,,,,,,,5
1508446851.838375,-3.115012,1.290959,-1.861439,1.239890,-0.337689,0.133984,-0.007341,-0.961100,0.276102,0.119767,0.024150,-0.152582,-10.703312,-31.808212,3.244593,,,,,,,5
1508446851.858371,-3.123031,1.263266,-1.866505,1.481913,-0.838326,0.090884,-0.005618,-0.953084,0.302654,0.083957,0.035207,-0.230541,-10.737556,-31.718849,3.933209,,,,,,,5
1508446851.878395,-3.140224,1.231911,-1.872471,1.574703,-1.296097,0.131764,-0.000455,-0.943126,0.332436,-0.033114,-0.105596,-0.409111,-10.716158,-31.563240,5.077049,,,,,,,5
1508446851.898408,3.124298,1.202716,-1.882557,1.347936,-1.441418,0.159595,0.006223,-0.933020,0.359771,-0.037534,-0.259958,-0.468963,-10.635989,-31.299744,6.637189,,,,,,,5
1508446851.918389,3.103350,1.182076,-1.890055,0.829480,-1.346842,0.089373,0.014491,-0.925395,0.378727,-0.024470,-0.257314,-0.560582,-10.549252,-31.148005,7.440813,,,,,,,5
1508446851.938428,3.082748,1.171993,-1.895026,0.322656,-1.193742,0.048039,0.022837,-0.921526,0.387644,-0.053416,-0.206510,-0.610773,-10.395576,-31.009811,8.195991,,,,,,,5
1508446851.958440,3.061178,1.171489,-1.891551,-0.146804,-0.712926,-0.142867,0.031230,-0.921331,0.387524,-0.166469,-0.206538,-0.542629,-10.165789,-30.968691,8.628300,,,,,,,5
1508446851.978433,3.043113,1.178162,-1.882422,-0.456831,-0.430092,-0.117529,0.037620,-0.923904,0.380770,-0.240592,-0.357132,-0.614473,-10.991796,-31.207920,7.701925,,,,,,,5
1508446851.998462,3.024487,1.189870,-1.874575,-0.678246,-0.661436,-0.081201,0.043438,-0.928321,0.369234,-0.458325,-0.501519,-0.539965,-10.852245,-31.305414,7.501555,,,,,,,5
1508446852.018474,3.000047,1.208881,-1.861390,-1.221263,-0.500905,-0.129217,0.049950,-0.935220,0.350525,-0.735390,-0.580862,-0.452652,-10.659575,-31.476120,7.049885,,,,,,,5
1508446852.038480,2.976295,1.242818,-1.838877,-2.028728,0.189059,-0.105547,0.053005,-0.946695,0.317739,-0.648205,-0.542623,-0.415014,-10.561769,-31.640566,6.434063,,,,,,,5
1508446852.058495,2.959301,1.288187,-1.805589,-2.406055,0.977534,-0.098483,0.050553,-0.960331,0.274242,-0.078889,-0.255627,-0.194378,-10.530439,-31.902882,5.038800,,,,,,,5
1508446852.078508,2.936830,1.334118,-1.766548,-2.294126,0.415802,-0.012804,0.047677,-0.972122,0.229577,0.320457,-0.178253,0.022117,-10.556301,-32.159630,2.897634,,,,,,,5
1508446852.098499,2.880502,1.375069,-1.721077,-1.963193,-1.237431,-0.032617,0.050202,-0.980907,0.187889,0.393539,-0.388371,0.232140,-10.558134,-32.238174,1.816419,,,,,,,5
1508446852.118530,2.780853,1.411011,-1.657976,-1.926910,-1.990051,0.136407,0.056159,-0.987261,0.148866,0.360680,-0.559171,0.546233,-10.518859,-32.284874,1.055531,,,,,,,5
1508446852.138519,2.706749,1.457621,-1.610007,-2.501640,-0.834480,0.889570,0.047575,-0.993603,0.102423,0.073320,-0.384907,0.414911,-10.761516,-32.219982,-0.368741,,,,,,,5
1508446852.158532,2.618632,1.513934,-1.526291,-2.651166,-0.004625,0.916647,0.028384,-0.998384,0.049235,-0.029605,-0.229811,0.279912,-11.236064,-32.023109,-1.531322,,,,,,,5
1508446852.178553,1.583826,1.555833,-0.488817,-2.342894,0.186181,0.541352,0.014961,-0.999888,0.000195,-0.190315,-0.072164,0.157291,-11.782481,-31.702614,-3.192325,,,,,,,5
1508446852.198547,0.108412,1.524767,0.994994,-2.296222,0.543099,0.540942,0.004979,-0.998941,-0.045743,-0.201817,-0.001364,0.292889,-12.170285,-31.302032,-5.112771,,,,,,,5
1508446852.218582,-0.072441,1.479838,1.190688,-2.211397,0.809080,0.667483,-0.006574,-0.995866,-0.090595,-0.133211,0.050584,0.340000,-12.388412,-31.000048,-6.292677,,,,,,,5
1508446852.238595,-0.131928,1.435042,1.269894,-2.156152,1.053386,0.667059,-0.017803,-0.990800,-0.134162,-0.024388,0.152543,0.375022,-12.679718,-30.520069,-7.862800,,,,,,,5
1508446852.258607,-0.150071,1.392023,1.312939,-2.029497,1.335717,0.615081,-0.026586,-0.984062,-0.175824,-0.029460,0.178673,0.438367,-12.925928,-29.840532,-9.825302,,,,,,,5
1508446852.278598,-0.144248,1.351831,1.340227,-1.896497,1.829323,0.527114,-0.031225,-0.976123,-0.214964,-0.055018,0.158496,0.499296,-12.964870,-29.412992,-10.993705,,,,,,,5
1508446852.298628,-0.116691,1.314919,1.356752,-1.745304,2.381107,0.370132,-0.029467,-0.967441,-0.251373,-0.104933,0.191593,0.579178,-12.811470,-28.839510,-12.578650,,,,,,,5
1508446852.318640,-0.071929,1.282247,1.364003,-1.523657,2.667174,0.185848,-0.020450,-0.958658,-0.283826,-0.081967,0.265436,0.572339,-12.203285,-28.163984,-14.558275,,,,,,,5
1508446852.338651,-0.021579,1.255803,1.367237,-1.178484,2.637946,0.082200,-0.006685,-0.950799,-0.309738,-0.032210,0.341713,0.530319,-11.658865,-27.809122,-15.645993,,,,,,,5
1508446852.358662,0.021426,1.237442,1.373190,-0.746072,2.243738,0.123803,0.007010,-0.944950,-0.327140,0.019220,0.389881,0.486441,-10.859643,-27.423241,-16.855492,,,,,,,5
1508446852.378584,0.041854,1.229792,1.387768,-0.157129,1.334704,0.304724,0.013993,-0.942419,-0.334141,0.139602,0.389212,0.441074,-10.093968,-27.118616,-17.797922,,,,,,,5
1508446852.398584,0.029706,1.235003,1.414149,0.469108,0.217587,0.529451,0.009787,-0.944149,-0.329373,0.305612,0.289593,0.373166,-9.978279,-27.071667,-17.934111,,,,,,,5
1508446852.418605,-0.014049,1.249961,1.452151,0.860120,-0.712793,0.652291,-0.004430,-0.948972,-0.315329,0.357168,0.275175,0.345480,-10.221325,-27.143633,-17.686750,,,,,,,5
1508446852.438618,-0.081542,1.268380,1.499227,1.003054,-1.349083,0.687061,-0.024259,-0.954619,-0.296839,0.410794,0.275771,0.256739,-10.671926,-27.265388,-17.227365,,,,,,,5
1508446852.458600,-0.166222,1.289321,1.553858,1.220610,-1.774401,0.609745,-0.045960,-0.960647,-0.273944,0.344605,0.241119,0.072940,-11.692842,-27.499006,-16.160311,,,,,,,5
1508446852.478633,-0.259434,1.313063,1.611507,1.353012,-1.862242,0.421247,-0.065388,-0.966970,-0.246360,0.309956,0.161779,-0.048883,-12.362082,-27.677439,-15.336618,,,,,,,5
1508446852.498628,-0.336980,1.335683,1.658818,1.122305,-1.342783,0.076887,-0.077023,-0.972488,-0.219851,0.059415,-0.179352,-0.662458,-13.443090,-28.103851,-13.547338,,,,,,,5
1508446852.518648,-0.357234,1.347159,1.668992,0.154069,0.124104,-0.124844,-0.077552,-0.975097,-0.207776,-0.123345,-0.351685,-0.882297,-13.650164,-28.293447,-12.931643,,,,,,,5
1508446852.538661,-0.322569,1.344205,1.660552,-0.231466,1.861807,0.042582,-0.071217,-0.974438,-0.213071,-0.490672,-0.441837,-0.696918,-13.485666,-28.346432,-12.988075,,,,,,,5
1508446852.558684,-0.292955,1.340223,1.671366,-0.091303,1.916625,0.246082,-0.065997,-0.973535,-0.218799,-0.472867,-0.150442,-0.460064,-12.915076,-28.249317,-13.756833,,,,,,,5
1508446852.578675,-0.285724,1.339079,1.695623,0.084598,1.305866,0.296050,-0.064727,-0.973273,-0.220339,-0.365738,-0.046777,-0.334562,-12.656631,-28.189753,-14.114569,,,,,,,5
1508446852.598706,-0.293776,1.339442,1.724041,0.094405,0.794942,0.313846,-0.066397,-0.973357,-0.219472,-0.106958,0.089415,-0.074061,-12.470310,-28.140751,-14.375782,,,,,,,5
1508446852.618718,-0.305347,1.337396,1.749813,-0.069505,0.722741,0.299661,-0.069531,-0.972885,-0.220589,0.012966,0.130967,0.049751,-12.424154,-28.060165,-14.571926,,,,,,,5
1508446852.638731,-0.298782,1.337452,1.765261,0.228791,1.265620,0.049125,-0.068065,-0.972898,-0.220988,-0.004552,0.268858,0.366099,-12.344164,-27.999886,-14.754714,,,,,,,5
1508446852.658738,-0.281860,1.354478,1.772572,1.266477,1.092962,-0.257604,-0.059699,-0.976694,-0.206166,-0.042916,0.087580,0.606800,-11.975019,-28.105558,-14.857664,,,,,,,5
1508446852.678751,-0.284609,1.389304,1.798013,1.845485,1.239539,-0.177117,-0.050680,-0.983576,-0.173236,-0.118006,-0.413184,0.448382,-11.396475,-28.714067,-14.131391,,,,,,,5
1508446852.698760,-0.273474,1.407844,1.821336,0.289312,2.274134,-0.142332,-0.043815,-0.986753,-0.156204,0.079964,-0.878131,-0.382630,-11.080471,-29.051847,-13.685282,,,,,,,5
1508446852.718771,-0.201178,1.404292,1.794719,-0.392035,1.800987,-0.058875,-0.033118,-0.986170,-0.162393,0.230643,-0.322622,-0.002142,-10.345948,-29.141544,-14.064325,,,,,,,5
1508446852.738784,-0.209891,1.398287,1.818458,-0.073690,-0.056376,0.480044,-0.035765,-0.985157,-0.167888,0.271696,0.250172,0.539165,-9.890210,-29.006464,-14.658867,,,,,,,5
1508446852.758778,-0.330948,1.404074,1.915009,0.932922,-1.749424,0.720252,-0.053924,-0.986134,-0.156946,0.462768,0.718815,0.739709,-10.517909,-28.945330,-14.339282,,,,,,,5
1508446852.778805,-0.487367,1.431682,2.044674,2.013338,-0.960873,0.058978,-0.064938,-0.990339,-0.122521,0.466366,0.788008,0.712563,-11.136901,-29.107819,-13.519536,,,,,,,5
1508446852.798818,-0.645012,1.475992,2.206121,2.547008,0.835111,-0.586883,-0.056912,-0.995509,-0.075644,0.264736,0.489650,0.545935,-11.347872,-29.487421,-12.481640,,,,,,,5
1508446852.818801,-1.078110,1.518925,2.673060,2.608833,1.878174,-0.316203,-0.045681,-0.998655,-0.024524,-0.269001,-0.337694,0.268802,-10.570029,-30.528986,-10.503763,,,,,,,5
1508446852.838820,-1.954511,1.519655,-2.705627,1.924714,0.817308,0.302352,-0.047402,-0.998693,0.019137,-0.442329,-0.539699,-0.069049,-10.310608,-30.815180,-9.909070,,,,,,,5
1508446852.858827,-2.285789,1.499262,-2.371199,1.153339,-0.064271,0.230369,-0.053969,-0.997443,0.046858,-0.544191,-0.197702,-0.060958,-10.360532,-31.234964,-8.432671,,,,,,,5
1508446852.878841,-2.474986,1.482931,-2.183373,1.192181,-0.167195,-0.032380,-0.054259,-0.996142,0.068967,-0.408814,0.006747,0.032687,-10.427194,-31.349667,-7.908574,,,,,,,5
1508446852.898860,-2.630859,1.452231,-2.037139,1.989152,-0.753451,0.434790,-0.057821,-0.992979,0.103193,-0.021189,0.133131,0.031130,-10.481444,-31.539991,-7.031490,,,,,,,5
1508446852.918886,-2.709126,1.409338,-1.979866,2.017749,-1.130974,0.629588,-0.067375,-0.986994,0.145958,0.246300,0.098749,-0.004966,-11.024617,-31.712250,-5.183105,,,,,,,5
1508446852.938872,-2.758033,1.376494,-1.945788,1.355982,-0.516099,0.164621,-0.072256,-0.981183,0.179052,0.286978,0.043454,-0.027227,-9.466513,-30.926666,-4.204837,,,,,,,5
1508446852.958905,-2.809132,1.358934,-1.898448,0.810302,-0.131640,-0.251648,-0.068629,-0.977641,0.198766,0.296336,-0.019017,-0.075124,-9.574165,-30.981586,-3.497275,,,,,,,5
1508446852.978918,-2.844738,1.346334,-1.863535,0.715219,-0.065150,-0.087347,-0.065108,-0.974914,0.212846,-0.051301,0.047729,0.002989,-9.409107,-31.111977,-2.695877,,,,,,,5
1508446852.998930,-2.865181,1.330556,-1.843515,0.891759,-0.044662,0.025923,-0.064934,-0.971281,0.228904,-0.172355,0.060804,0.022515,-9.395294,-31.155025,-2.201612,,,,,,,5
1508446853.018938,-2.886232,1.311936,-1.822249,0.990859,0.007130,-0.033910,-0.064659,-0.966682,0.247678,-0.199761,0.035744,0.006701,-9.402819,-31.171764,-1.913734,,,,,,,5
1508446853.038951,-2.903727,1.293602,-1.802054,0.918370,0.141062,-0.022695,-0.064482,-0.961827,0.265953,-0.113222,0.013920,-0.018379,-9.374843,-31.222437,-1.012845,,,,,,,5
1508446853.058959,-2.915112,1.275360,-1.788046,0.976881,0.030759,0.037331,-0.065379,-0.956675,0.283722,0.051631,0.036189,-0.086013,-9.370455,-31.234318,-0.605107,,,,,,,5
1508446853.078975,-2.936181,1.252910,-1.772270,1.264776,-0.561347,-0.029949,-0.063753,-0.949898,0.305988,0.117265,0.023797,-0.158909,-9.385899,-31.235195,-0.147518,,,,,,,5
1508446853.098984,-2.975021,1.226741,-1.750371,1.323726,-1.006827,-0.124562,-0.055926,-0.941394,0.332639,0.215503,0.027881,-0.361554,-9.326159,-31.229574,1.220939,,,,,,,5
1508446853.118997,-3.003856,1.205322,-1.739170,0.946392,-0.821139,0.058794,-0.049070,-0.933954,0.354008,0.128065,-0.084448,-0.395359,-9.246372,-31.203962,2.138130,,,,,,,5
1508446853.139006,-3.018884,1.188459,-1.741492,0.774867,-0.991712,0.164789,-0.045667,-0.927795,0.370285,0.158322,-0.140732,-0.422058,-9.268881,-31.156551,2.666716,,,,,,,5
1508446853.159020,-3.045360,1.176454,-1.743358,0.456977,-1.628182,0.078633,-0.036916,-0.923249,0.382424,0.269856,-0.177123,-0.418938,-9.299071,-31.100714,3.166568,,,,,,,5
1508446853.179015,-3.072190,1.171133,-1.750143,0.153273,-1.546864,0.198634,-0.026984,-0.921192,0.388171,-0.099054,-0.132320,-0.017963,-9.231632,-31.024731,3.999677,,,,,,,5
1508446853.199031,-3.086804,1.170798,-1.756766,-0.057727,-0.675088,0.052746,-0.021325,-0.921062,0.388832,-0.302085,-0.105366,0.055626,-9.232775,-31.001648,4.172269,,,,,,,5
1508446853.219026,-3.091902,1.171783,-1.754757,-0.026993,0.033049,-0.067846,-0.019297,-0.921445,0.388030,-0.596578,-0.203616,-0.184722,-9.194775,-30.995789,4.297831,,,,,,,5
1508446853.239064,-3.095278,1.172540,-1.752894,-0.061030,-0.231257,-0.011895,-0.017955,-0.921739,0.387396,-0.635960,-0.276092,-0.381750,-9.161134,-31.007685,4.283834,,,,,,,5
1508446853.259053,-3.100359,1.178323,-1.753343,-0.496531,-0.172618,-0.017575,-0.015766,-0.923966,0.382150,-0.600063,-0.435668,-0.595803,-9.141797,-31.016092,4.264253,,,,,,,5
1508446853.279085,-3.096754,1.198522,-1.751896,-1.359145,0.511633,-0.116811,-0.016304,-0.931502,0.363370,0.009499,-0.711198,-0.655118,-9.112734,-31.094719,3.718957,,,,,,,5
1508446853.299097,-3.087364,1.239752,-1.742000,-2.468461,1.116843,-0.375725,-0.017617,-0.945703,0.324553,0.548577,-0.502066,-0.576628,-9.031518,-31.242237,2.471533,,,,,,,5
1508446853.319106,-3.092082,1.297737,-1.722186,-2.953463,0.277651,-0.434665,-0.013347,-0.962950,0.269348,0.649196,-0.328508,-0.475815,-8.927160,-31.330755,1.563267,,,,,,,5
1508446853.339119,-3.118729,1.350300,-1.704602,-2.377149,-0.907602,-0.259380,-0.005000,-0.975789,0.218657,0.623820,-0.116527,-0.086165,-6.938276,-31.749912,1.950080,,,,,,,5
1508446853.359119,3.094801,1.392900,-1.669050,-2.028019,-2.289352,-0.411931,0.008277,-0.984218,0.176766,0.537774,-0.410023,0.117790,-6.781925,-31.827856,0.996139,,,,,,,5
1508446853.379139,2.950133,1.430358,-1.586173,-1.919995,-3.488551,-0.345932,0.026637,-0.990155,0.137420,0.420248,-0.553775,0.242570,-6.566591,-31.887527,0.254635,,,,,,,5
1508446853.399152,2.820356,1.470966,-1.521142,-2.152760,-2.903423,0.467119,0.031468,-0.995021,0.094566,0.077724,-0.506078,0.570473,-6.415483,-31.903828,-0.993309,,,,,,,5
1508446853.419145,2.754663,1.518464,-1.495698,-2.315833,-1.538203,0.780904,0.019738,-0.998631,0.048441,-0.154824,-0.246364,0.561590,-6.761192,-31.797268,-1.794280,,,,,,,5
1508446853.439173,1.626934,1.563055,-0.388317,-2.404160,-0.748665,0.528428,0.007729,-0.999970,0.000434,-0.239846,-0.132980,0.382149,-7.299238,-31.579927,-3.070607,,,,,,,5
1508446853.459186,-0.040669,1.523501,1.272397,-2.366060,-0.175139,0.496169,-0.001922,-0.998882,-0.047239,-0.093644,-0.049275,0.323377,-7.591349,-31.390797,-4.121730,,,,,,,5
1508446853.479167,-0.144838,1.475266,1.376562,-2.353666,0.058039,0.648706,-0.013767,-0.995440,-0.094386,0.047626,0.156131,0.314418,-8.104109,-30.896629,-6.302455,,,,,,,5
1508446853.499207,-0.187286,1.427861,1.421910,-2.238714,0.157819,0.643342,-0.026523,-0.989802,-0.139958,0.060764,0.218989,0.353871,-8.399954,-30.575035,-7.389680,,,,,,,5
1508446853.519193,-0.207647,1.384377,1.446517,-2.025720,0.267991,0.586623,-0.038210,-0.982674,-0.181360,0.026613,0.225930,0.410212,-8.676782,-30.227274,-8.427613,,,,,,,5
1508446853.539215,-0.202456,1.343933,1.451754,-1.921242,0.691117,0.389763,-0.045226,-0.974377,-0.220328,-0.088822,0.271481,0.526191,-9.077843,-29.510231,-10.331426,,,,,,,5
1508446853.559230,-0.177484,1.308045,1.446970,-1.662484,1.216258,0.225131,-0.045858,-0.965679,-0.255658,-0.127207,0.280605,0.561810,-9.105174,-29.275036,-10.957530,,,,,,,5
1508446853.579256,-0.139822,1.279119,1.439931,-1.303665,1.730786,0.078353,-0.040076,-0.957763,-0.284752,-0.175973,0.339248,0.571267,-8.827691,-28.646357,-12.706589,,,,,,,5
1508446853.599264,-0.089442,1.258316,1.428993,-0.903190,2.144210,-0.113942,-0.027459,-0.951574,-0.306191,-0.170584,0.354437,0.580437,-8.479504,-28.406351,-13.460184,,,,,,,5
1508446853.619273,-0.028351,1.244778,1.414034,-0.567771,2.444326,-0.213162,-0.009079,-0.947325,-0.320145,-0.132614,0.385268,0.566711,-7.797060,-28.188829,-14.303671,,,,,,,5
1508446853.639286,0.030517,1.237354,1.404581,-0.251769,2.491310,-0.096590,0.009986,-0.944921,-0.327145,-0.043205,0.404425,0.489468,-6.757722,-28.043310,-15.096534,,,,,,,5
1508446853.659298,0.077876,1.236673,1.405255,0.103650,2.313241,0.072309,0.025513,-0.944698,-0.326947,-0.027527,0.368572,0.445462,-6.171303,-28.010126,-15.406076,,,,,,,5
1508446853.679306,0.112527,1.243370,1.411322,0.434923,1.789587,0.143856,0.036113,-0.946873,-0.319573,0.052754,0.251927,0.351296,-5.664604,-28.028236,-15.566938,,,,,,,5
1508446853.699320,0.132165,1.254489,1.414376,0.605906,0.629343,0.118836,0.040991,-0.950391,-0.308347,0.256570,0.157101,0.118619,-5.015364,-28.215408,-15.451094,,,,,,,5
1508446853.719325,0.110797,1.269454,1.428139,0.781845,-1.048067,0.452285,0.032818,-0.954939,-0.294982,0.338002,0.063963,-0.126481,-5.038878,-28.351711,-15.191757,,,,,,,5
1508446853.739340,0.028643,1.287166,1.472420,0.852191,-2.468227,0.816999,0.008014,-0.960046,-0.279728,0.416394,0.017938,-0.378460,-5.696199,-28.534292,-14.606397,,,,,,,5
1508446853.759353,-0.086472,1.303109,1.536169,0.789445,-2.581899,0.806813,-0.022843,-0.964385,-0.263514,0.448899,-0.018861,-0.566610,-7.192525,-28.697271,-13.591667,,,,,,,5
1508446853.779357,-0.175871,1.314370,1.591861,0.528390,-1.268584,0.541594,-0.044376,-0.967303,-0.249713,0.236316,-0.062391,-0.750958,-7.966061,-28.762705,-13.009536,,,,,,,5
1508446853.799373,-0.214361,1.320247,1.621726,0.309135,-0.088503,0.156304,-0.052742,-0.968776,-0.242261,-0.143288,-0.010380,-0.647921,-8.532000,-28.806013,-12.546628,,,,,,,5
1508446853.819387,-0.218361,1.324706,1.630680,0.172742,0.396780,0.077819,-0.052774,-0.969872,-0.237829,-0.318548,-0.099281,-0.510462,-8.605556,-28.870394,-12.346824,,,,,,,5
1508446853.839399,-0.224383,1.323906,1.649426,-0.080175,0.680356,0.324031,-0.054378,-0.969677,-0.238263,-0.142766,-0.256107,-0.429889,-8.571033,-28.859554,-12.396083,,,,,,,5
1508446853.859407,-0.239934,1.319171,1.680065,-0.151775,0.728674,0.459764,-0.059167,-0.968509,-0.241846,-0.051520,-0.192395,-0.336584,-8.571033,-28.859554,-12.396083,,,,,,,5
1508446853.879395,-0.254433,1.313528,1.711178,-0.229480,0.799778,0.427234,-0.064042,-0.967089,-0.246249,0.121491,0.059297,0.034716,-8.689589,-28.642164,-12.810808,,,,,,,5
1508446853.899432,-0.259333,1.302778,1.731799,-0.586007,0.693515,0.364585,-0.067910,-0.964298,-0.255966,0.147942,0.052219,0.162216,-8.722588,-28.476419,-13.153298,,,,,,,5
1508446853.919429,-0.247518,1.290924,1.733694,-0.429982,0.661511,0.046426,-0.067677,-0.961091,-0.267814,0.143345,0.128861,0.263206,-8.725643,-28.366428,-13.386869,,,,,,,5
1508446853.939455,-0.233200,1.297541,1.735584,0.919080,1.050229,-0.080561,-0.062364,-0.962897,-0.262563,-0.103316,0.150367,0.646046,-8.475153,-28.270998,-13.744879,,,,,,,5
1508446853.959451,-0.223342,1.334804,1.761533,2.339946,2.196791,-0.081807,-0.051786,-0.972283,-0.228001,-0.306536,-0.004997,0.583073,-8.166016,-28.556513,-13.335708,,,,,,,5
1508446853.979474,-0.236802,1.372573,1.815844,1.411283,1.612931,0.201825,-0.046198,-0.980418,-0.191432,-0.626012,-0.551702,-0.321614,-7.605387,-29.142653,-12.363787,,,,,,,5
1508446853.999479,-0.206961,1.388832,1.820979,0.583689,1.678670,-0.262796,-0.037185,-0.983490,-0.177100,0.060653,-0.393555,0.301947,-7.102258,-29.491295,-11.824582,,,,,,,5
1508446854.019491,-0.209612,1.392582,1.831747,0.035390,-0.555105,0.349605,-0.036887,-0.984162,-0.173393,0.205924,-0.142257,0.592155,-6.802968,-29.584431,-11.767772,,,,,,,5
1508446854.039508,-0.317508,1.397220,1.908031,0.760662,-1.999173,0.660081,-0.053919,-0.984973,-0.164074,0.421503,0.256610,0.776409,-7.215301,-29.558342,-11.586331,,,,,,,5
1508446854.059520,-0.490267,1.420570,2.050247,1.963730,-1.120884,0.464116,-0.070470,-0.988737,-0.132033,0.674047,0.718138,0.786635,-8.199049,-29.729952,-10.435751,,,,,,,5
1508446854.079526,-0.685925,1.460240,2.247932,2.424275,0.531181,-0.336845,-0.069883,-0.993895,-0.085378,0.519620,0.524901,0.357992,-8.415236,-30.018524,-9.384630,,,,,,,5
1508446854.099541,-0.944908,1.499282,2.528672,2.114479,1.236999,-0.564594,-0.057909,-0.997444,-0.041858,0.188799,-0.072792,0.161640,-8.079290,-30.495440,-8.046901,,,,,,,5
1508446854.119554,-1.454652,1.520343,3.057453,1.694679,0.520383,-0.193811,-0.050093,-0.998728,-0.005844,-0.075075,-0.484518,-0.074814,-7.504524,-30.960630,-6.717204,,,,,,,5
1508446854.139555,-1.997813,1.513412,-2.686398,1.355862,-0.583764,0.251879,-0.052203,-0.998354,0.023753,-0.236631,-0.377760,-0.168162,-7.457619,-31.119774,-5.995245,,,,,,,5
1508446854.159575,-2.278476,1.494023,-2.423951,1.246264,-1.135710,0.368744,-0.058281,-0.997054,0.049859,-0.209069,0.024825,0.004706,-7.619258,-31.207573,-5.294682,,,,,,,5
1508446854.179588,-2.465951,1.465836,-2.263978,1.744468,-1.537998,0.539717,-0.065522,-0.994497,0.081751,-0.106689,0.172567,0.064169,-7.947275,-31.272800,-4.341901,,,,,,,5
1508446854.199584,-2.602215,1.426240,-2.158868,2.037250,-1.562515,0.560216,-0.073986,-0.989570,0.123602,0.036663,0.172447,0.061274,-8.608739,-31.315468,-2.286988,,,,,,,5
1508446854.219609,-2.691758,1.390613,-2.094627,1.628685,-1.132020,0.266494,-0.077923,-0.983811,0.161382,0.042843,0.103058,0.019481,-8.880962,-31.301077,-1.170581,,,,,,,5
1508446854.239618,-2.757884,1.366543,-2.045830,1.091368,-0.803500,-0.044339,-0.075934,-0.979213,0.188087,-0.033197,-0.024160,-0.048377,-9.034957,-31.278040,0.230195,,,,,,,5
1508446854.259612,-2.803707,1.351057,-2.010566,0.745131,-0.406014,-0.046897,-0.072257,-0.975954,0.205650,-0.090081,-0.026304,-0.012062,-8.995638,-31.280249,0.789870,,,,,,,5
1508446854.279628,-2.823477,1.338264,-1.993742,0.657456,-0.046528,0.059126,-0.072077,-0.973086,0.218881,-0.162130,0.032275,0.078696,-8.969774,-31.270237,1.309458,,,,,,,5
1508446854.299642,-2.836607,1.323785,-1.979182,0.811805,0.076578,0.046651,-0.073421,-0.969647,0.233224,-0.206090,0.090924,0.039085,-9.014339,-31.229939,1.852564,,,,,,,5
1508446854.319640,-2.854092,1.306159,-1.959517,0.965195,0.080609,0.007460,-0.074167,-0.965187,0.250824,-0.187110,0.106850,-0.014221,-9.032858,-31.198931,2.243556,,,,,,,5
1508446854.339656,-2.873187,1.286718,-1.938873,1.042989,-0.004469,-0.006868,-0.074327,-0.959920,0.270238,-0.043898,0.090993,-0.080846,-9.039347,-31.162283,2.683559,,,,,,,5
1508446854.359688,-2.894917,1.265444,-1.918215,1.131478,-0.162875,-0.027553,-0.073408,-0.953741,0.291529,0.164320,0.004705,-0.168757,-9.027227,-31.064165,3.677778,,,,,,,5
1508446854.379698,-2.919721,1.243508,-1.899634,1.130560,-0.511264,-0.011852,-0.070743,-0.946918,0.313596,0.201404,-0.050336,-0.241315,-8.999046,-31.001070,4.236755,,,,,,,5
1508446854.399709,-2.947105,1.220886,-1.888778,1.155106,-1.051576,0.110387,-0.066254,-0.939403,0.336351,0.182693,-0.057163,-0.291307,-8.959413,-30.925320,4.832468,,,,,,,5
1508446854.419722,-2.972247,1.197569,-1.888488,1.134752,-1.324063,0.259077,-0.061453,-0.931155,0.359407,0.113958,-0.046384,-0.259660,-8.902351,-30.700560,6.182480,,,,,,,5
1508446854.439719,-2.994163,1.175170,-1.895539,1.047411,-1.478900,0.321059,-0.056612,-0.922756,0.381205,0.119661,-0.074666,-0.309474,-8.898816,-30.553207,6.878358,,,,,,,5
1508446854.459743,-3.019993,1.155287,-1.902147,0.906096,-1.663016,0.204761,-0.048964,-0.914911,0.400675,0.153013,-0.128088,-0.353846,-8.866205,-30.347078,7.774612,,,,,,,5
1508446854.479738,-3.053850,1.140689,-1.901523,0.592384,-1.634973,-0.025662,-0.036539,-0.908921,0.415364,0.120203,-0.170974,-0.307470,-8.633554,-30.142096,8.770126,,,,,,,5
1508446854.499755,-3.084718,1.132524,-1.897694,0.324897,-1.165280,-0.025386,-0.024123,-0.905486,0.423689,-0.140046,-0.270402,-0.115385,-8.402249,-30.079443,9.199385,,,,,,,5
1508446854.519776,-3.099258,1.129217,-1.897340,0.052999,-0.438451,-0.011109,-0.018087,-0.904078,0.426985,-0.438440,-0.286764,-0.089689,-8.191360,-30.026997,9.554071,,,,,,,5
1508446854.539790,-3.108317,1.132021,-1.892804,-0.219435,-0.211478,-0.156927,-0.014134,-0.905273,0.424596,-0.541835,-0.311219,-0.482381,-8.119068,-30.021513,9.632698,,,,,,,5
1508446854.559774,-3.118959,1.137703,-1.885589,-0.342981,-0.190117,-0.143024,-0.009498,-0.907672,0.419573,-0.434212,-0.490018,-0.856539,-7.635986,-32.179649,4.360414,,,,,,,5
1508446854.579811,-3.124339,1.152226,-1.879941,-1.024602,0.150217,-0.135616,-0.007013,-0.913671,0.406394,-0.474952,-0.551692,-0.893867,-7.562658,-32.224800,4.149676,,,,,,,5
1508446854.599824,-3.121673,1.182326,-1.873153,-1.726413,0.588116,-0.179409,-0.007544,-0.925489,0.378698,-0.275232,-0.499773,-0.896200,-7.469090,-32.363335,3.111035,,,,,,,5
1508446854.619815,-3.123864,1.221723,-1.859035,-2.105036,0.451622,-0.383874,-0.006063,-0.939690,0.341973,0.038763,-0.396034,-0.730355,-7.388122,-32.459389,2.157546,,,,,,,5
1508446854.639827,3.133625,1.267864,-1.829783,-2.383489,-0.188137,-0.493131,0.002377,-0.954466,0.298311,0.477405,-0.163469,-0.245927,-7.212954,-32.552319,1.082206,,,,,,,5
1508446854.659856,3.093876,1.314294,-1.801194,-2.252684,-0.856489,-0.211464,0.012101,-0.967283,0.253410,0.510696,-0.368609,0.215553,-6.794816,-32.639431,-1.161669,,,,,,,5
,,,,,,,,,,,,,,,,42.293330,-71.264164,60.445976,-1.000000,-1.000000,1508446854.651396,5
1508446854.679841,3.041056,1.356516,-1.781121,-2.073419,-2.225335,-0.041725,0.021343,-0.977130,0.211571,0.335744,-0.786893,0.375038,-6.752367,-32.600197,-2.117585,,,,,,,5
1508446854.699877,2.979783,1.398475,-1.770632,-2.142251,-2.496669,0.429183,0.027625,-0.985189,0.169230,0.244470,-0.854960,0.571203,-6.818088,-32.525322,-2.910050,,,,,,,5
1508446854.719890,3.046653,1.450170,-1.873168,-2.713179,-1.133236,1.384836,0.011407,-0.992733,0.119792,-0.122949,-0.540058,0.668690,-7.775489,-31.201757,-4.320296,,,,,,,5
1508446854.739888,-2.936920,1.510349,-2.182360,-3.128217,-0.208014,0.998802,-0.012278,-0.998174,0.059150,-0.313894,-0.158870,0.317605,-8.471618,-30.820673,-5.566923,,,,,,,5
1508446854.759910,-1.556459,1.546871,2.717086,-2.879149,-0.031817,0.386634,-0.023921,-0.999714,-0.000343,-0.323079,-0.085156,0.161842,-9.055126,-30.260468,-7.414958,,,,,,,5
1508446854.779924,-0.476464,1.506863,1.643566,-2.798387,0.594607,0.298336,-0.029302,-0.997957,-0.056774,-0.071192,-0.088240,0.246395,-9.280672,-29.575455,-9.583031,,,,,,,5
1508446854.799924,-0.322865,1.452142,1.506703,-2.705437,0.972804,0.617747,-0.037559,-0.992969,-0.112259,0.115379,0.061191,0.365326,-9.331800,-29.095219,-10.911397,,,,,,,5
1508446854.819944,-0.290498,1.399148,1.494973,-2.450138,1.054868,0.731715,-0.048924,-0.985305,-0.163650,0.159733,0.256667,0.465408,-9.466915,-28.345507,-12.632601,,,,,,,5
1508446854.839957,-0.267450,1.351515,1.493648,-2.200750,1.112632,0.579429,-0.057487,-0.976054,-0.209795,0.109168,0.356486,0.549913,-9.586679,-27.368641,-14.550804,,,,,,,5
1508446854.859944,-0.240752,1.309489,1.490386,-1.936520,1.223579,0.448601,-0.061598,-0.966053,-0.250893,0.029844,0.381580,0.567650,-9.519494,-26.625839,-15.909649,,,,,,,5
1508446854.879977,-0.211844,1.274054,1.488788,-1.599983,1.487504,0.329133,-0.061482,-0.956294,-0.285870,0.000875,0.386744,0.599835,-9.374236,-26.110016,-16.824493,,,,,,,5
1508446854.899991,-0.174603,1.246213,1.486497,-1.229411,1.924471,0.181329,-0.055401,-0.947784,-0.314065,-0.089863,0.412337,0.620309,-8.861801,-25.383675,-18.160683,,,,,,,5
1508446854.919975,-0.126420,1.226357,1.483092,-0.845047,2.434759,0.041147,-0.042575,-0.941265,-0.334975,-0.133863,0.448482,0.687224,-8.136935,-24.957367,-19.068115,,,,,,,5
1508446854.939998,-0.066771,1.214456,1.476251,-0.454166,2.750573,-0.117229,-0.023275,-0.937180,-0.348069,-0.114756,0.442139,0.708497,-7.662474,-24.802002,-19.463299,,,,,,,5
1508446854.960023,-0.002402,1.210473,1.465121,-0.059974,2.574785,-0.201417,-0.000847,-0.935783,-0.352576,0.103172,0.436775,0.637870,-5.940147,-24.587248,-20.318827,,,,,,,5
1508446854.980034,0.043894,1.213886,1.459599,0.317037,1.669141,0.005441,0.015331,-0.936981,-0.349044,0.172459,0.419448,0.565551,-5.143956,-24.611130,-20.506218,,,,,,,5
1508446855.000026,0.055768,1.227405,1.466632,0.925224,0.458539,0.227819,0.018766,-0.941618,-0.336159,0.308763,0.383299,0.366921,-4.539162,-24.766003,-20.462502,,,,,,,5
1508446855.020033,0.031934,1.255131,1.481721,1.605065,-1.075357,0.362169,0.009912,-0.950590,-0.310291,0.472830,0.231748,0.065372,-4.656780,-25.296116,-19.776093,,,,,,,5
1508446855.040068,-0.043333,1.291241,1.517313,1.884322,-2.594769,0.628447,-0.011953,-0.961178,-0.275669,0.514929,0.112378,-0.076366,-5.247672,-25.760643,-19.013790,,,,,,,5
1508446855.060079,-0.178750,1.326305,1.593000,1.736326,-3.273911,0.820495,-0.043039,-0.970261,-0.238206,0.512521,-0.183350,-0.418212,-6.587428,-26.374767,-17.710175,,,,,,,5
1508446855.080091,-0.310611,1.338749,1.668905,0.095412,-2.403585,0.651091,-0.070288,-0.973198,-0.218966,0.085211,-0.690605,-1.402037,-8.433321,-26.805521,-16.217768,,,,,,,5
1508446855.100096,-0.349238,1.329834,1.690117,-0.318073,-0.046620,0.185232,-0.081657,-0.971109,-0.224232,-0.498344,-0.390662,-0.895382,-9.090778,-26.688942,-16.054003,,,,,,,5
1508446855.120112,-0.331296,1.330029,1.689875,0.138437,1.246296,-0.032554,-0.077560,-0.971155,-0.225481,-0.611359,-0.242636,-0.645719,-9.116869,-26.589029,-16.204294,,,,,,,5
1508446855.140125,-0.315792,1.330044,1.702340,-0.047396,1.413087,0.243937,-0.074050,-0.971159,-0.226643,-0.315415,-0.012819,-0.261943,-8.812207,-26.620697,-16.320429,,,,,,,5
1508446855.160109,-0.309598,1.324406,1.726292,-0.292602,1.449929,0.413364,-0.074312,-0.969799,-0.232309,-0.000548,0.105938,-0.068884,-8.381568,-26.555670,-16.649883,,,,,,,5
1508446855.180145,-0.299765,1.312171,1.741744,-0.561573,1.096910,0.279914,-0.075522,-0.966742,-0.244347,0.129096,-0.019448,0.036186,-8.123520,-26.366968,-17.072325,,,,,,,5
1508446855.200159,-0.271392,1.307473,1.725173,-0.024395,0.240147,-0.395607,-0.069777,-0.965530,-0.250763,0.133238,0.187653,0.454194,-7.796111,-26.151535,-17.549664,,,,,,,5
1508446855.220152,-0.251990,1.325792,1.704972,1.387594,0.078879,-0.426663,-0.060478,-0.970136,-0.234900,-0.119179,0.151655,1.021811,-7.535023,-26.386641,-17.310158,,,,,,,5
1508446855.240179,-0.264911,1.364615,1.733614,2.133776,1.252666,-0.036308,-0.053601,-0.978820,-0.197582,-0.194858,-0.030961,0.757640,-7.321726,-26.850630,-16.676598,,,,,,,5
1508446855.260193,-0.278621,1.391247,1.775118,0.616597,1.323341,-0.105210,-0.049117,-0.983924,-0.171699,-0.140199,-0.714043,-0.885857,-7.006958,-27.367855,-15.955432,,,,,,,5
1508446855.280203,-0.222366,1.397321,1.755141,0.202271,1.640099,-0.115844,-0.038066,-0.984991,-0.168357,0.208476,-0.275278,0.422980,-6.142147,-27.730459,-15.683380,,,,,,,5
1508446855.300215,-0.254743,1.394604,1.796410,-0.156893,-0.436988,0.674985,-0.044171,-0.984518,-0.169625,0.261517,0.074393,0.632898,-5.911055,-27.755720,-15.727438,,,,,,,5
1508446855.320221,-0.373426,1.392992,1.890744,0.535592,-1.537630,0.760789,-0.064523,-0.984234,-0.164679,0.352746,0.615170,0.877951,-6.708125,-27.623579,-15.640074,,,,,,,5
1508446855.340237,-0.497995,1.413690,1.992954,1.721578,-0.752640,0.008816,-0.074736,-0.987684,-0.137457,0.358961,0.771253,0.855429,-7.303066,-27.754725,-15.133186,,,,,,,5
1508446855.360236,-0.609377,1.457277,2.112482,2.563004,0.964560,-0.639887,-0.064834,-0.993564,-0.092887,0.232131,0.609637,0.648246,-7.397303,-28.302618,-14.032629,,,,,,,5
1508446855.380261,-0.917164,1.502677,2.446066,2.541000,0.994645,-0.242897,-0.054037,-0.997681,-0.041390,-0.111613,-0.338913,-0.084114,-6.636839,-29.260830,-12.346216,,,,,,,5
1508446855.400267,-1.541113,1.514323,3.070830,1.648539,-0.443560,0.284215,-0.056419,-0.998406,-0.001675,-0.237984,-0.550071,-0.381900,-6.504055,-29.683182,-11.370090,,,,,,,5
1508446855.420281,-1.956680,1.504317,-2.805558,1.165334,-0.470215,0.183315,-0.061545,-0.997791,0.025003,-0.301019,-0.458584,-0.073053,-6.758980,-29.990850,-10.370057,,,,,,,5
1508446855.440294,-2.226457,1.489870,-2.548974,1.276227,-0.836731,0.196730,-0.064076,-0.996727,0.049285,-0.020992,0.129418,0.125031,-7.027390,-30.249870,-9.393298,,,,,,,5
1508446855.460294,-2.438375,1.460485,-2.356319,1.898622,-1.107781,0.549834,-0.071191,-0.993922,0.083971,0.166986,0.246821,0.040098,-7.398034,-30.470518,-8.336031,,,,,,,5
1508446855.480314,-2.582029,1.422967,-2.235600,1.903267,-1.167986,0.346461,-0.078185,-0.989093,0.124828,0.255462,0.233875,-0.008556,-7.660188,-30.583620,-7.657448,,,,,,,5
1508446855.500327,-2.693909,1.394315,-2.140458,1.457764,-0.757228,-0.128588,-0.075999,-0.984467,0.158265,0.178676,0.018571,-0.002137,-8.113673,-30.888515,-5.721954,,,,,,,5
1508446855.520332,-2.773440,1.372741,-2.071843,1.118000,-0.491511,-0.141839,-0.070813,-0.980451,0.183579,-0.004595,-0.099566,-0.038651,-8.098716,-31.017435,-5.000228,,,,,,,5
1508446855.540348,-2.817471,1.356012,-2.032685,0.825961,-0.163890,-0.065211,-0.067879,-0.977022,0.202038,-0.152260,-0.024397,-0.039487,-8.058242,-31.138432,-4.258602,,,,,,,5
1508446855.560363,-2.841139,1.340337,-2.008609,0.875745,0.050979,0.021607,-0.067603,-0.973562,0.218192,-0.244836,0.036825,-0.022437,-8.038322,-31.196966,-3.848042,,,,,,,5
1508446855.580372,-2.860756,1.320727,-1.988263,1.078059,-0.060585,0.046617,-0.068589,-0.968895,0.237776,-0.242797,0.069390,-0.087126,-8.058791,-31.284666,-2.999732,,,,,,,5
1508446855.600382,-2.887141,1.298610,-1.963465,1.171970,-0.142778,-0.051691,-0.067671,-0.963185,0.260182,-0.161700,0.045674,-0.120488,-8.072896,-31.327686,-2.465204,,,,,,,5
1508446855.620380,-2.913266,1.276875,-1.941509,1.091060,-0.336970,-0.002463,-0.065575,-0.957115,0.282189,0.022072,0.017128,-0.168542,-8.055007,-31.371748,-1.898201,,,,,,,5
1508446855.640379,-2.934337,1.255035,-1.931022,1.143207,-0.725370,0.123314,-0.063902,-0.950560,0.303895,0.133833,0.044402,-0.194230,-8.069254,-31.410679,-0.963971,,,,,,,5
1508446855.660396,-2.963229,1.229064,-1.922752,1.387329,-1.201537,0.090897,-0.059457,-0.942176,0.329803,0.165948,0.082617,-0.189285,-8.154560,-31.403303,-0.092574,,,,,,,5
1508446855.680421,-2.999617,1.199898,-1.911409,1.500353,-1.308046,0.028930,-0.051287,-0.932002,0.358806,0.129793,-0.010381,-0.117732,-8.187546,-31.368956,1.274985,,,,,,,5
1508446855.700431,-3.029107,1.170322,-1.908102,1.431914,-1.326523,0.202969,-0.043761,-0.920876,0.387392,0.116637,-0.069984,-0.170274,-8.182142,-31.323130,2.141716,,,,,,,5
1508446855.720424,-3.049695,1.144582,-1.914199,1.145417,-1.280576,0.235775,-0.037939,-0.910537,0.411683,0.102087,-0.147965,-0.247498,-8.246332,-31.212404,3.233677,,,,,,,5
1508446855.740463,-3.074084,1.126698,-1.913903,0.752952,-1.161297,-0.042078,-0.028983,-0.902999,0.428665,0.047659,-0.202135,-0.273620,-8.253152,-31.081562,4.300565,,,,,,,5
1508446855.760466,-3.102544,1.114816,-1.907589,0.509234,-1.115752,-0.117523,-0.017190,-0.897830,0.440007,-0.012000,-0.225873,-0.278081,-8.138791,-31.044086,4.764215,,,,,,,5
1508446855.780483,-3.126903,1.107914,-1.900930,0.259977,-0.759882,-0.158707,-0.006559,-0.894769,0.446481,-0.196032,-0.221762,-0.248773,-7.956161,-31.016052,5.232285,,,,,,,5
1508446855.800495,3.139803,1.104217,-1.892056,0.154406,-0.249033,-0.212429,0.000805,-0.893112,0.449833,-0.391888,-0.290451,-0.465031,-7.736482,-31.019104,5.534892,,,,,,,5
1508446855.820494,3.130229,1.102200,-1.883362,0.056264,-0.037418,-0.167295,0.005132,-0.892203,0.451605,-0.440450,-0.456186,-0.642081,-7.591451,-31.037100,5.633929,,,,,,,5
1508446855.840517,3.126592,1.104907,-1.878903,-0.295343,0.066192,-0.059386,0.006738,-0.893422,0.449167,-0.500360,-0.522395,-0.671671,-7.542297,-31.047050,5.645106,,,,,,,5
1508446855.860526,3.128413,1.118511,-1.877368,-0.944984,0.215404,-0.018851,0.005760,-0.899451,0.436985,-0.420814,-0.661676,-0.658695,-7.504289,-31.123056,5.264395,,,,,,,5
1508446855.880522,3.131569,1.148369,-1.871679,-1.855238,0.571202,-0.180484,0.004109,-0.912096,0.409955,-0.178426,-0.582044,-0.577191,-7.505344,-31.214037,4.693248,,,,,,,5
1508446855.900550,3.131034,1.196186,-1.854257,-2.636560,0.803629,-0.362440,0.003863,-0.930650,0.365890,0.456662,-0.276045,-0.358397,-7.422633,-31.404741,3.364465,,,,,,,5
1508446855.920563,3.122702,1.249529,-1.836125,-2.587573,0.145599,-0.179398,0.005965,-0.948836,0.315713,0.514009,-0.309617,-0.132669,-7.206619,-31.613203,1.158828,,,,,,,5
1508446855.940564,3.104746,1.295225,-1.827365,-2.111357,-0.897368,-0.037839,0.010024,-0.962270,0.271912,0.416414,-0.499965,0.142471,-7.148148,-31.647697,-0.003158,,,,,,,5
1508446855.960579,3.067435,1.335409,-1.820235,-2.036603,-1.794623,0.091999,0.017279,-0.972424,0.232579,0.181238,-0.572361,0.364589,-7.142619,-31.627087,-1.176109,,,,,,,5
1508446855.980597,3.046192,1.381601,-1.834077,-2.459076,-1.562438,0.501808,0.017915,-0.982156,0.187213,-0.026017,-0.411963,0.348340,-7.380338,-31.491421,-2.548325,,,,,,,5
1508446856.000607,3.077712,1.434971,-1.886997,-2.667417,-0.724618,0.671081,0.008644,-0.990790,0.135131,-0.164940,-0.218606,0.227967,-7.713348,-31.309113,-3.593956,,,,,,,5
1508446856.020618,-3.114639,1.489030,-1.983663,-2.715385,0.013099,0.491301,-0.002201,-0.996659,0.081646,-0.205273,-0.199172,0.179249,-8.068960,-31.063738,-4.754883,,,,,,,5
1508446856.040632,-2.793153,1.543449,-2.297384,-2.840924,0.587110,0.269232,-0.009336,-0.999626,0.025701,-0.073046,-0.177178,0.213343,-8.397641,-30.675829,-6.414520,,,,,,,5
1508446856.060641,-0.435695,1.535843,1.642002,-2.851707,0.732783,0.305454,-0.014749,-0.999389,-0.031682,0.046319,0.013717,0.308949,-8.519382,-29.940594,-9.146247,,,,,,,5
1508446856.080654,-0.241623,1.479790,1.461914,-2.799741,0.682227,0.437873,-0.021746,-0.995862,-0.088241,0.052645,0.077237,0.366302,-8.545262,-29.639652,-10.056956,,,,,,,5
1508446856.100648,-0.200557,1.424698,1.433680,-2.661283,0.637499,0.427270,-0.029002,-0.989347,-0.142661,0.024699,0.202375,0.445151,-8.687534,-28.581108,-12.661748,,,,,,,5
1508446856.120674,-0.175851,1.373344,1.423138,-2.464288,0.792308,0.373647,-0.034320,-0.980570,-0.193146,0.011309,0.196939,0.504639,-8.734160,-27.813938,-14.239805,,,,,,,5
1508446856.140685,-0.151990,1.326067,1.418566,-2.254570,1.077751,0.312774,-0.036685,-0.970203,-0.239501,-0.019040,0.199817,0.540267,-8.691279,-27.230270,-15.350795,,,,,,,5
1508446856.160698,-0.125194,1.284347,1.416190,-1.942559,1.302497,0.226081,-0.035281,-0.959253,-0.280337,-0.064359,0.287409,0.545535,-8.423703,-26.284315,-17.054293,,,,,,,5
1508446856.180708,-0.095662,1.249951,1.415168,-1.564531,1.494300,0.146296,-0.030123,-0.948969,-0.313927,-0.043318,0.349100,0.571709,-10.313877,-24.469986,-18.688755,,,,,,,5
1508446856.200720,-0.067116,1.223603,1.416283,-1.155597,1.430266,0.124070,-0.022820,-0.940331,-0.339494,-0.013618,0.381982,0.593553,-10.062921,-24.168694,-19.210354,,,,,,,5
1508446856.220731,-0.048200,1.206012,1.422187,-0.692348,1.056287,0.182977,-0.017189,-0.934201,-0.356334,0.127372,0.435498,0.594661,-9.341554,-23.478704,-20.393913,,,,,,,5
1508446856.240722,-0.048736,1.198506,1.436420,-0.156700,0.357529,0.337000,-0.017721,-0.931497,-0.363318,0.209157,0.434152,0.604361,-9.117411,-23.230804,-20.775669,,,,,,,5
1508446856.260753,-0.073632,1.201841,1.460792,0.390714,-0.379550,0.470860,-0.026531,-0.932705,-0.359664,0.252605,0.430202,0.606917,-9.146087,-23.180241,-20.819496,,,,,,,5
1508446856.280765,-0.118999,1.213419,1.491943,0.749816,-1.071190,0.507373,-0.041530,-0.936817,-0.347345,0.328792,0.458302,0.473596,-9.759339,-23.310869,-20.390795,,,,,,,5
1508446856.300773,-0.183391,1.230961,1.530644,1.120570,-1.537729,0.513274,-0.060788,-0.942810,-0.327742,0.273144,0.467239,0.317625,-10.518043,-23.556055,-19.720772,,,,,,,5
1508446856.320787,-0.258665,1.257842,1.576039,1.688436,-1.620458,0.333699,-0.078750,-0.951428,-0.297629,0.192825,0.415158,0.206534,-10.941123,-23.733587,-19.272638,,,,,,,5
1508446856.340800,-0.342301,1.293646,1.630103,2.047527,-1.554328,0.159965,-0.091841,-0.961839,-0.257742,-0.130846,-0.195723,-0.553370,-12.061434,-24.575300,-17.464314,,,,,,,5
1508446856.360809,-0.419906,1.320524,1.685609,0.788455,-0.773609,0.245990,-0.100968,-0.968845,-0.226152,-0.675537,-1.074536,-1.338865,-12.606360,-25.154875,-16.209192,,,,,,,5
1508446856.380821,-0.419355,1.317199,1.700784,-0.292181,1.495799,0.158930,-0.102154,-0.968016,-0.229149,-0.668781,-0.651659,-0.979683,-12.606360,-25.154875,-16.209192,,,,,,,5
1508446856.400811,-0.378265,1.314192,1.695732,-0.050272,1.857140,-0.065591,-0.093730,-0.967257,-0.235856,-0.370458,-0.040357,-0.494277,-12.444024,-25.090897,-16.432257,,,,,,,5
1508446856.420843,-0.338944,1.314825,1.693887,0.001720,1.886129,0.029623,-0.084182,-0.967418,-0.238781,0.034408,0.213710,-0.007862,-11.477163,-25.080513,-17.136757,,,,,,,5
1508446856.440853,-0.313058,1.310658,1.703287,-0.271087,1.606563,0.242238,-0.079214,-0.966355,-0.244712,0.086080,0.170777,-0.029061,-11.168327,-25.069454,-17.355598,,,,,,,5
1508446856.460846,-0.295776,1.304665,1.713638,-0.116360,1.186603,0.168665,-0.076660,-0.964796,-0.251580,0.116730,0.217786,0.366815,-10.504076,-24.868572,-18.045618,,,,,,,5
1508446856.480877,-0.291827,1.313447,1.719377,0.886830,-0.044343,-0.201969,-0.073225,-0.967068,-0.243757,0.122771,0.174954,0.562955,-10.280991,-24.874105,-18.166067,,,,,,,5
1508446856.500877,-0.322862,1.346801,1.740684,2.000834,-0.553837,-0.215518,-0.070477,-0.975018,-0.210650,0.104916,-0.175846,0.657412,-10.215149,-25.145256,-17.826742,,,,,,,5
1508446856.520901,-0.365844,1.376104,1.793266,0.849385,1.248668,0.139418,-0.069210,-0.981107,-0.180662,0.242672,-0.988406,-0.635317,-10.219463,-26.113552,-16.372869,,,,,,,5
1508446856.540911,-0.294335,1.371741,1.768662,-0.652737,2.191397,-0.265159,-0.057366,-0.980254,-0.189240,0.296288,-0.224580,0.199585,-9.484697,-26.154316,-16.745691,,,,,,,5
1508446856.560906,-0.263839,1.357155,1.753427,-0.714426,0.026308,0.316174,-0.055292,-0.977265,-0.204683,0.284022,0.138825,0.522249,-9.107243,-26.057560,-17.102268,,,,,,,5
1508446856.580934,-0.340002,1.344765,1.810263,-0.115255,-1.539880,0.924711,-0.074739,-0.974564,-0.211282,0.366288,0.671570,0.854913,-9.530988,-25.613165,-17.537157,,,,,,,5
1508446856.600920,-0.445761,1.352953,1.883172,1.202011,-1.584441,0.229625,-0.093181,-0.976366,-0.195005,0.336009,0.910188,0.949278,-10.296150,-25.537121,-17.212517,,,,,,,5
1508446856.620956,-0.503554,1.392444,1.935140,2.413378,0.453178,-0.782054,-0.085607,-0.984137,-0.155387,0.194524,0.386817,0.755134,-10.765658,-25.805037,-16.511406,,,,,,,5
1508446856.640968,-0.595182,1.448938,2.051199,2.981090,1.333335,-0.540329,-0.068152,-0.992584,-0.100655,-0.044977,-0.273117,0.336617,-9.982869,-27.178013,-14.701153,,,,,,,5
1508446856.660965,-0.950807,1.486706,2.417643,2.283871,-0.278738,0.420549,-0.068359,-0.996466,-0.048801,-0.433899,-0.827630,-0.355709,-9.627342,-27.839470,-13.663969,,,,,,,5
1508446856.680990,-1.386664,1.486763,2.839896,1.349925,-0.673773,0.626555,-0.082516,-0.996471,-0.015368,-0.369251,-0.503697,0.064944,-10.002928,-28.298037,-12.393083,,,,,,,5
1508446856.701003,-1.683475,1.485624,3.129404,1.172317,-0.491554,-0.150972,-0.084530,-0.996375,0.009565,-0.094913,0.048575,0.197115,-10.436052,-28.586218,-11.328851,,,,,,,5
1508446856.721013,-1.992222,1.479482,-2.862774,1.468134,-1.135537,0.137399,-0.083210,-0.995834,0.037301,0.136966,0.302398,0.149954,-10.539139,-28.880606,-10.452896,,,,,,,5
1508446856.741024,-2.261287,1.452670,-2.613918,1.968855,-0.998410,0.540915,-0.090856,-0.993031,0.075061,0.184667,0.312077,0.068707,-10.539139,-28.880606,-10.452896,,,,,,,5
1508446856.761018,-2.450596,1.418966,-2.440361,1.956570,-0.782888,0.198129,-0.096391,-0.988496,0.116553,0.002794,0.037339,-0.005179,-11.377613,-29.381428,-7.855415,,,,,,,5
1508446856.781046,-2.580748,1.392233,-2.319912,1.458588,-0.410758,-0.091052,-0.094474,-0.984100,0.150407,-0.083687,-0.070435,-0.053574,-11.503759,-29.628681,-6.650613,,,,,,,5
1508446856.801052,-2.649822,1.373193,-2.254102,0.938731,-0.117051,-0.025912,-0.092700,-0.980540,0.173056,-0.180738,-0.080831,-0.117712,-11.501140,-29.728317,-6.194901,,,,,,,5
1508446856.821059,-2.681156,1.361115,-2.219857,0.591462,0.252779,-0.039147,-0.092489,-0.978097,0.186471,-0.173564,0.084390,-0.135293,-11.480273,-29.896349,-5.370051,,,,,,,5
1508446856.841081,-2.701826,1.350486,-2.191914,0.669153,0.309055,-0.035269,-0.093036,-0.975830,0.197740,-0.095700,0.088577,-0.201066,-11.424334,-29.966633,-5.090318,,,,,,,5
1508446856.861080,-2.732297,1.335358,-2.157558,0.944022,0.033713,-0.050244,-0.092833,-0.972412,0.214001,-0.016161,0.056534,-0.212796,-11.399525,-30.005983,-4.910967,,,,,,,5
1508446856.881105,-2.772275,1.316760,-2.121789,1.063504,-0.485772,-0.033679,-0.090719,-0.967906,0.234368,0.226339,0.031718,-0.141060,-11.360316,-30.150064,-4.042621,,,,,,,5
1508446856.901114,-2.819357,1.294582,-2.091616,1.269223,-1.129456,0.022899,-0.086366,-0.962095,0.258679,0.263230,0.043577,-0.132580,-11.389177,-30.214764,-3.432289,,,,,,,5
1508446856.921125,-2.874483,1.266770,-2.062672,1.549479,-1.465420,-0.011243,-0.079016,-0.954139,0.288748,0.248449,0.048255,-0.105795,-11.468763,-30.286465,-2.371359,,,,,,,5
1508446856.941131,-2.929455,1.235215,-2.038398,1.624026,-1.667129,0.038198,-0.069338,-0.944219,0.321936,0.061434,-0.063807,-0.143591,-11.522907,-30.349747,-0.735733,,,,,,,5
1508446856.961148,-2.972782,1.205259,-2.028439,1.406637,-1.683633,0.146060,-0.060055,-0.933932,0.352370,-0.004062,-0.076688,-0.217406,-11.578999,-30.331360,0.601025,,,,,,,5
1508446856.981159,-3.006930,1.180267,-2.025033,1.161695,-1.439312,0.104827,-0.051108,-0.924708,0.377232,-0.149407,-0.118993,-0.299015,-11.617880,-30.285599,1.494370,,,,,,,5
1508446857.001171,-3.033694,1.160520,-2.022227,0.841135,-1.060125,0.037518,-0.042953,-0.917011,0.396543,-0.310288,-0.193463,-0.310758,-11.615077,-30.201778,2.714469,,,,,,,5
1508446857.021178,-3.051596,1.149857,-2.019901,0.352283,-0.632970,-0.008784,-0.036725,-0.912706,0.406964,-0.375644,-0.234511,-0.261624,-11.571627,-30.158045,3.318975,,,,,,,5
1508446857.041192,-3.062564,1.148468,-2.016210,-0.072564,-0.233681,-0.115269,-0.032359,-0.912137,0.408606,-0.276494,-0.187518,-0.315176,-11.546605,-30.150061,3.475002,,,,,,,5
1508446857.061205,-3.071240,1.152609,-2.008531,-0.223729,-0.027773,-0.190893,-0.028547,-0.913826,0.405100,-0.155718,-0.289894,-0.656275,-11.411237,-30.201487,3.475595,,,,,,,5
1508446857.081206,-3.080680,1.157564,-1.999696,-0.268396,-0.111694,-0.196649,-0.024446,-0.915828,0.400827,-0.212981,-0.405828,-0.750528,-11.322215,-30.245668,3.381258,,,,,,,5
1508446857.101223,-3.089524,1.167211,-1.990811,-0.634758,0.090318,-0.203779,-0.020439,-0.919659,0.392186,-0.332451,-0.560230,-0.680455,-11.195532,-30.310762,3.216149,,,,,,,5
1508446857.121239,-3.089063,1.188595,-1.984527,-1.360047,0.373393,-0.172286,-0.019583,-0.927846,0.372449,-0.048182,-0.565272,-0.780332,-11.065762,-30.421503,2.550874,,,,,,,5
1508446857.141249,-3.096298,1.225262,-1.971621,-2.052588,0.140123,-0.453948,-0.015336,-0.940895,0.338352,0.388719,-0.334084,-0.321125,-10.926242,-30.542593,1.480946,,,,,,,5
1508446857.161260,-3.131180,1.272278,-1.937273,-2.456667,-0.304323,-0.626913,-0.003062,-0.955773,0.294089,0.397609,-0.290778,-0.116614,-10.926242,-30.542593,1.480946,,,,,,,5
1508446857.181248,3.105842,1.321864,-1.901860,-2.463332,-0.797258,-0.328148,0.008806,-0.969176,0.246212,0.267576,-0.497819,0.140278,-10.396329,-30.756664,-0.608226,,,,,,,5
1508446857.201274,3.047897,1.368592,-1.867872,-2.293899,-1.512920,-0.202716,0.018789,-0.979626,0.199949,0.066492,-0.744693,0.402422,-10.145758,-30.738789,-2.572235,,,,,,,5
1508446857.221279,2.978585,1.414915,-1.829952,-2.442500,-1.505271,0.138911,0.025195,-0.987875,0.153193,-0.031161,-0.781656,0.501501,-10.132805,-30.692793,-3.115228,,,,,,,5
1508446857.241304,2.970044,1.471779,-1.841941,-2.974277,-0.653970,0.771883,0.016875,-0.995102,0.097404,-0.317001,-0.375504,0.351830,-10.515859,-30.308384,-5.024393,,,,,,,5
1508446857.261318,3.119349,1.533180,-1.994305,-2.928809,0.050261,0.751496,0.000836,-0.999293,0.037598,-0.365308,-0.202734,0.279586,-11.044127,-29.777363,-6.764744,,,,,,,5
1508446857.281302,-0.530093,1.550776,1.657472,-2.647221,0.176475,0.432363,-0.010122,-0.999800,-0.017271,-0.290614,-0.064562,0.213438,-11.331307,-29.348595,-8.042851,,,,,,,5
1508446857.301334,-0.238710,1.500078,1.373527,-2.531176,0.524535,0.339886,-0.016707,-0.997500,-0.068656,-0.087464,-0.031232,0.281775,-11.558846,-28.644363,-10.015957,,,,,,,5
1508446857.321353,-0.197297,1.448991,1.347686,-2.524201,0.928770,0.497832,-0.023817,-0.992591,-0.119147,-0.014131,0.035285,0.370703,-11.616785,-28.178158,-11.201230,,,,,,,5
1508446857.341362,-0.183082,1.397339,1.355839,-2.503141,1.208344,0.552519,-0.031422,-0.984994,-0.169705,0.037464,0.259316,0.493420,-11.667032,-27.452122,-12.833053,,,,,,,5
1508446857.361273,-0.165062,1.347959,1.364868,-2.356205,1.423702,0.490010,-0.036313,-0.975274,-0.217994,0.042386,0.303872,0.555183,-11.590900,-26.441729,-14.863107,,,,,,,5
1508446857.381276,-0.140928,1.301871,1.372732,-2.202897,1.695337,0.421208,-0.037320,-0.964057,-0.263062,0.016156,0.286704,0.588349,-11.431630,-25.822742,-16.029024,,,,,,,5
1508446857.401294,-0.110157,1.260180,1.379627,-1.945183,1.962551,0.319192,-0.033601,-0.952145,-0.303793,0.000657,0.270001,0.611776,-11.169959,-25.203526,-17.159258,,,,,,,5
1508446857.421307,-0.073671,1.225598,1.384949,-1.566016,2.122368,0.206386,-0.024907,-0.941008,-0.337466,-0.098659,0.275756,0.559054,-10.310278,-24.073807,-19.198330,,,,,,,5
1508446857.441304,-0.035334,1.199245,1.390078,-1.153866,2.162292,0.141675,-0.012826,-0.931765,-0.362835,-0.091193,0.290804,0.557461,-9.747239,-23.614429,-20.044348,,,,,,,5
1508446857.461328,-0.002630,1.181955,1.397996,-0.683173,1.829718,0.194287,-0.000997,-0.925349,-0.379115,-0.015345,0.330546,0.538981,-9.138439,-23.241667,-20.754269,,,,,,,5
1508446857.481341,0.008393,1.175012,1.413726,-0.128296,0.890974,0.380228,0.003236,-0.922695,-0.385518,0.092040,0.353221,0.490316,-8.221483,-22.795435,-21.614840,,,,,,,5
1508446857.501333,-0.013885,1.181039,1.442100,0.566025,-0.223937,0.638526,-0.005275,-0.925001,-0.379927,0.271297,0.340620,0.467986,-8.233385,-22.772707,-21.634256,,,,,,,5
1508446857.521363,-0.071822,1.199302,1.485362,1.139052,-1.252996,0.822419,-0.026049,-0.931786,-0.362072,0.342440,0.352715,0.450222,-8.233385,-22.772707,-21.634256,,,,,,,5
1508446857.541353,-0.158318,1.224521,1.541198,1.471592,-1.932001,0.822521,-0.053508,-0.940643,-0.335152,0.431209,0.410599,0.297997,-9.307419,-23.168518,-20.760963,,,,,,,5
1508446857.561386,-0.263636,1.252262,1.609281,1.660239,-2.032234,0.744147,-0.081611,-0.949695,-0.302355,0.417793,0.365940,0.133745,-11.036602,-23.807236,-19.126808,,,,,,,5
1508446857.581377,-0.368493,1.283132,1.679448,1.836490,-1.830758,0.362446,-0.102197,-0.958909,-0.264668,0.350182,0.256074,-0.052089,-11.581891,-24.045637,-18.495756,,,,,,,5
1508446857.601394,-0.456706,1.313087,1.738469,1.504659,-1.286893,-0.005089,-0.112395,-0.966976,-0.228745,-0.161623,-0.481480,-0.816497,-12.743557,-24.867487,-16.541939,,,,,,,5
1508446857.621419,-0.485735,1.325637,1.761695,0.165373,0.420014,0.021348,-0.113311,-0.970099,-0.214637,-0.571823,-0.782022,-0.946008,-12.970233,-25.208326,-15.834748,,,,,,,5
1508446857.641405,-0.455513,1.318691,1.759686,-0.475511,1.869866,0.161960,-0.109736,-0.968390,-0.224008,-0.647146,-0.641687,-0.834387,-12.878815,-25.207184,-15.910999,,,,,,,5
1508446857.661442,-0.406565,1.310187,1.754425,-0.315893,2.267946,0.101823,-0.101897,-0.966233,-0.236666,-0.416597,-0.054366,-0.470869,-12.057328,-24.947924,-16.930677,,,,,,,5
1508446857.681453,-0.368405,1.307755,1.759569,0.038774,2.019208,0.112016,-0.093640,-0.965604,-0.242572,-0.150394,0.154981,-0.150266,-11.344748,-24.862646,-17.537716,,,,,,,5
1508446857.701464,-0.351396,1.310401,1.773333,0.267044,1.138467,0.127076,-0.088621,-0.966288,-0.241730,-0.053179,0.181590,-0.073822,-11.031066,-24.862415,-17.737017,,,,,,,5
1508446857.721476,-0.355922,1.319157,1.789612,0.652167,0.256974,-0.049289,-0.086763,-0.968506,-0.233387,0.116960,0.029297,0.127018,-10.552196,-25.002090,-17.831785,,,,,,,5
1508446857.741475,-0.375953,1.339363,1.805200,1.221384,-0.472643,-0.208048,-0.084216,-0.973339,-0.213353,0.157855,-0.152409,0.370900,-10.499572,-25.338804,-17.381886,,,,,,,5
1508446857.761498,-0.413966,1.365822,1.840656,1.315684,0.203201,-0.136485,-0.081873,-0.979066,-0.186349,0.138514,-0.215850,0.458780,-10.529652,-25.579268,-17.007452,,,,,,,5
1508446857.781510,-0.407179,1.380704,1.863892,0.450969,2.427305,-0.083380,-0.074828,-0.981987,-0.173502,0.090010,-0.543938,0.301462,-10.169567,-26.179417,-16.298588,,,,,,,5
1508446857.801503,-0.335700,1.381568,1.847609,-0.290942,2.325380,-0.179020,-0.061966,-0.982150,-0.177601,0.223755,-0.105939,0.021290,-9.432219,-26.263170,-16.604366,,,,,,,5
1508446857.821532,-0.289033,1.375697,1.821039,-0.217716,0.418717,-0.104261,-0.055256,-0.981028,-0.185822,0.338505,0.249507,0.235856,-8.783759,-26.218613,-17.025150,,,,,,,5
1508446857.841544,-0.328299,1.381403,1.851548,0.745740,-1.031206,0.390249,-0.060702,-0.982119,-0.178209,0.406817,0.488665,0.447755,-8.643824,-26.193447,-17.135153,,,,,,,5
1508446857.861555,-0.466703,1.403482,1.958175,1.749198,-1.827561,0.351081,-0.074932,-0.986036,-0.148725,0.416454,0.540097,0.698423,-9.375558,-26.489624,-16.273434,,,,,,,5
1508446857.881551,-0.645164,1.441431,2.113314,2.402398,-0.753859,-0.247490,-0.077575,-0.991644,-0.103075,0.317306,0.396368,0.678515,-9.375558,-26.489624,-16.273434,,,,,,,5
1508446857.901572,-0.928726,1.480473,2.400920,2.446324,0.563679,-0.170534,-0.072238,-0.995924,-0.054017,-0.055295,-0.306597,0.294541,-9.821593,-27.858505,-13.485762,,,,,,,5
1508446857.921589,-1.416044,1.495375,2.904242,1.922703,0.530595,0.313836,-0.074450,-0.997157,-0.011614,-0.330900,-0.547261,-0.288587,-9.642694,-28.452122,-12.325625,,,,,,,5
1508446857.941576,-1.738269,1.486724,-3.057799,0.961544,-0.267588,0.365989,-0.082798,-0.996468,0.013998,-0.381984,-0.415611,-0.220769,-9.701974,-28.633108,-11.850852,,,,,,,5
1508446857.961600,-1.926151,1.482287,-2.870474,0.843128,0.025837,-0.195887,-0.082871,-0.996086,0.030754,-0.265899,0.118064,0.180687,-9.966049,-28.899529,-10.950843,,,,,,,5
1508446857.981623,-2.157856,1.476722,-2.639550,1.229671,-0.171842,-0.161968,-0.078208,-0.995578,0.052032,-0.174310,0.289051,0.199661,-9.835189,-29.152658,-10.383517,,,,,,,5
1508446858.001634,-2.381333,1.456718,-2.418913,1.666821,-0.181764,0.104625,-0.078442,-0.993500,0.082488,-0.100727,0.330063,0.149155,-9.818995,-29.296143,-9.987457,,,,,,,5
1508446858.021646,-2.553826,1.427184,-2.250769,1.875726,-0.393496,0.042305,-0.079360,-0.989706,0.119101,0.136703,0.059667,0.016718,-9.946165,-29.740477,-8.426373,,,,,,,5
1508446858.041657,-2.676720,1.396221,-2.137316,1.670461,-0.584878,-0.035131,-0.077867,-0.984800,0.155258,0.192048,-0.066881,-0.015594,-10.035033,-30.024612,-7.228190,,,,,,,5
1508446858.061661,-2.753945,1.371136,-2.068094,1.262593,-0.374391,-0.055375,-0.074973,-0.980134,0.183620,0.154151,-0.085692,0.004109,-10.063950,-30.193638,-6.441042,,,,,,,5
1508446858.081657,-2.794856,1.350288,-2.033145,1.044057,-0.330237,0.082336,-0.074330,-0.975786,0.205709,0.031285,0.022844,-0.011159,-10.106352,-30.375322,-5.443100,,,,,,,5
1508446858.101680,-2.824289,1.329335,-2.009434,1.130325,-0.313350,0.063896,-0.074608,-0.970989,0.227185,-0.071968,0.068539,-0.048673,-10.127713,-30.399122,-5.267694,,,,,,,5
1508446858.121690,-2.859872,1.305141,-1.979635,1.339215,-0.363738,-0.035569,-0.072989,-0.964921,0.252192,-0.123804,0.016907,-0.118677,-10.232010,-30.537941,-4.143199,,,,,,,5
1508446858.141716,-2.895836,1.279132,-1.950604,1.327522,-0.410467,-0.033571,-0.069957,-0.957767,0.278907,-0.111256,-0.025983,-0.153907,-10.235042,-30.669046,-3.013214,,,,,,,5
1508446858.161725,-2.920643,1.255814,-1.933081,1.112307,-0.403713,0.042384,-0.067894,-0.950802,0.302269,-0.036460,-0.023029,-0.152381,-10.245090,-30.722641,-2.362913,,,,,,,5
1508446858.181718,-2.939994,1.234957,-1.922770,1.045270,-0.552339,0.060884,-0.065990,-0.944134,0.322887,0.039302,-0.012989,-0.141643,-10.289048,-30.757147,-1.599755,,,,,,,5
1508446858.201729,-2.962358,1.213469,-1.914880,1.103953,-0.867810,0.081360,-0.062356,-0.936835,0.344169,0.053842,-0.011453,-0.148414,-10.356573,-30.769835,-0.620052,,,,,,,5
1508446858.221758,-2.987711,1.191135,-1.909973,1.117876,-1.126930,0.108962,-0.056805,-0.928790,0.366227,0.037029,0.024554,-0.181534,-10.371321,-30.768448,-0.405157,,,,,,,5
1508446858.241748,-3.012833,1.168959,-1.908068,1.094451,-1.158754,0.118327,-0.050220,-0.920344,0.387872,0.026203,0.069728,-0.218347,-10.445130,-30.737492,0.729183,,,,,,,5
1508446858.261780,-3.039376,1.146444,-1.905047,1.147893,-1.252583,0.028194,-0.042013,-0.911305,0.409582,0.067052,-0.032527,-0.274450,-10.489563,-30.657982,2.117348,,,,,,,5
1508446858.281793,-3.073242,1.123768,-1.898298,1.116229,-1.438845,-0.077618,-0.029524,-0.901736,0.431279,0.069106,-0.112791,-0.247853,-10.438688,-30.615639,2.853487,,,,,,,5
1508446858.301778,-3.105196,1.103726,-1.893338,0.908428,-1.280255,-0.022782,-0.016385,-0.892891,0.449974,0.012540,-0.254615,-0.141091,-10.335556,-30.573307,3.588190,,,,,,,5
1508446858.321811,-3.125210,1.091273,-1.893631,0.414108,-0.843257,0.010734,-0.007558,-0.887215,0.461295,-0.272715,-0.217140,-0.137274,-10.174348,-30.472448,4.726350,,,,,,,5
1508446858.341826,-3.140041,1.087962,-1.889792,0.090483,-0.448410,-0.135379,-0.000720,-0.885683,0.464290,-0.357220,-0.213332,-0.179317,-10.107395,-30.456125,4.968992,,,,,,,5
1508446858.361836,3.129183,1.085758,-1.882130,0.133106,-0.314778,-0.192422,0.005786,-0.884657,0.466206,-0.374194,-0.207628,-0.319096,-10.011645,-30.468948,5.082924,,,,,,,5
1508446858.381828,3.117748,1.083210,-1.874911,0.081872,-0.216861,-0.148052,0.011170,-0.883466,0.468361,-0.362183,-0.432116,-0.492638,-9.797917,-30.503210,5.289692,,,,,,,5
1508446858.401845,3.110545,1.086503,-1.870413,-0.364444,-0.121799,-0.068614,0.014453,-0.885004,0.465359,-0.491015,-0.528189,-0.626140,-9.722824,-30.522314,5.317975,,,,,,,5
1508446858.421861,3.110623,1.101489,-1.869510,-0.986604,0.178505,0.044664,0.014004,-0.891882,0.452052,-0.495877,-0.595606,-0.734126,-14.121606,-29.740108,6.716370,,,,,,,5
1508446858.441868,3.119939,1.130769,-1.868384,-1.783164,0.718309,-0.036035,0.009223,-0.904740,0.425864,-0.085288,-0.461150,-0.665946,-14.191667,-29.932463,5.625626,,,,,,,5
1508446858.461885,3.128006,1.176018,-1.857449,-2.491988,0.948385,-0.271697,0.005225,-0.923082,0.384568,0.340798,-0.308363,-0.501359,-14.200166,-30.171221,4.129908,,,,,,,5
1508446858.481889,3.121865,1.228092,-1.837482,-2.605545,0.318370,-0.303988,0.006629,-0.941849,0.335970,0.433358,-0.263015,-0.394396,-14.145599,-30.305979,3.233116,,,,,,,5
1508446858.501899,3.101738,1.276619,-1.821462,-2.295607,-0.577698,-0.103000,0.011553,-0.957041,0.289722,0.491377,-0.333456,0.044217,-13.923250,-30.569193,0.819190,,,,,,,5
1508446858.521928,3.070436,1.318133,-1.813318,-1.979195,-1.542922,0.069241,0.017773,-0.968250,0.249351,0.376148,-0.558483,0.259301,-13.905578,-30.583984,0.508295,,,,,,,5
1508446858.541917,3.040938,1.359567,-1.822837,-2.152112,-2.015302,0.448635,0.021068,-0.977774,0.208601,0.185811,-0.532221,0.403429,-13.933840,-30.569139,-0.615767,,,,,,,5
1508446858.561930,3.062810,1.407744,-1.876977,-2.456672,-1.201054,0.849210,0.012776,-0.986736,0.161828,-0.041554,-0.321674,0.432487,-14.460178,-30.273945,-1.842517,,,,,,,5
1508446858.581963,-3.120581,1.460151,-1.989921,-2.656122,-0.309861,0.789677,-0.002320,-0.993885,0.110395,-0.231399,-0.143658,0.189547,-15.018797,-29.893986,-3.128728,,,,,,,5
1508446858.601946,-2.893790,1.512203,-2.217793,-2.686714,0.127889,0.501210,-0.014363,-0.998284,0.056771,-0.182460,-0.116035,0.170417,-15.018797,-29.893986,-3.128728,,,,,,,5
1508446858.621979,-1.693188,1.547208,2.872002,-2.710269,0.552671,0.454488,-0.023410,-0.999722,0.002880,0.007266,-0.038852,0.235737,-15.664588,-29.041103,-6.343375,,,,,,,5
1508446858.641996,-0.567404,1.507170,1.760288,-2.857616,0.813584,0.615310,-0.034173,-0.997976,-0.053620,0.074425,0.071875,0.336137,-15.864563,-28.476662,-8.148545,,,,,,,5
1508446858.662004,-0.390513,1.450498,1.599653,-2.809784,0.849806,0.651933,-0.045683,-0.992773,-0.110974,0.086515,0.120336,0.403332,-15.970850,-28.130016,-9.090522,,,,,,,5
1508446858.681999,-0.327395,1.395029,1.554069,-2.652271,0.942192,0.665016,-0.056232,-0.984593,-0.165575,0.027698,0.168995,0.479601,-16.239410,-26.939655,-11.812707,,,,,,,5
1508446858.702030,-0.290538,1.343229,1.537827,-2.428644,1.127735,0.594599,-0.064629,-0.974218,-0.216153,-0.030555,0.156194,0.514737,-16.330954,-26.076328,-13.502907,,,,,,,5
1508446858.722040,-0.253764,1.296567,1.526478,-2.191056,1.383076,0.435977,-0.067985,-0.962634,-0.262133,-0.064568,0.152545,0.548968,-16.317945,-25.648590,-14.313559,,,,,,,5
1508446858.742054,-0.215606,1.256181,1.518871,-1.849208,1.648087,0.324007,-0.066204,-0.950916,-0.302286,-0.051915,0.254169,0.577524,-16.527233,-24.104633,-15.616955,,,,,,,5
1508446858.762044,-0.176213,1.224029,1.516464,-1.418015,1.969483,0.249018,-0.059578,-0.940476,-0.334597,-0.009910,0.327195,0.638109,-16.087608,-23.456783,-17.001183,,,,,,,5
1508446858.782075,-0.139411,1.201658,1.519022,-0.890854,1.866039,0.214961,-0.050138,-0.932639,-0.357311,0.014097,0.350791,0.670986,-15.799339,-23.182953,-17.635296,,,,,,,5
1508446858.802087,-0.119025,1.190998,1.528686,-0.267741,1.176473,0.277079,-0.044023,-0.928739,-0.368110,0.169221,0.392149,0.646812,-14.987969,-22.635920,-19.001263,,,,,,,5
1508446858.822072,-0.125261,1.192624,1.549454,0.348892,0.342762,0.432732,-0.046128,-0.929341,-0.366329,0.279252,0.377416,0.581249,-14.808418,-22.526646,-19.270002,,,,,,,5
1508446858.842108,-0.163320,1.204244,1.583649,0.837871,-0.752187,0.596717,-0.058274,-0.933568,-0.353630,0.338380,0.378713,0.502342,-14.866755,-22.539518,-19.209940,,,,,,,5
1508446858.862121,-0.239906,1.222994,1.635699,1.252251,-1.688832,0.753817,-0.080986,-0.940124,-0.331071,0.384346,0.435653,0.264955,-15.775637,-22.753887,-18.206095,,,,,,,5
1508446858.882132,-0.342553,1.248228,1.703267,1.684935,-2.079339,0.638907,-0.106479,-0.948424,-0.298585,0.249286,0.383987,0.054567,-16.758764,-23.014956,-16.956644,,,,,,,5
1508446858.902142,-0.463158,1.278377,1.783334,1.929170,-2.193839,0.438535,-0.128792,-0.957549,-0.257899,0.137154,0.249389,-0.101949,-17.254152,-23.196606,-16.195175,,,,,,,5
1508446858.922142,-0.573370,1.307666,1.863031,1.583257,-1.220731,0.086114,-0.141098,-0.965580,-0.218508,-0.216034,-0.438701,-0.784101,-18.439211,-23.839476,-13.774869,,,,,,,5
1508446858.942166,-0.606621,1.324989,1.897220,0.621423,0.668511,-0.244079,-0.138726,-0.969941,-0.199922,-0.487662,-0.570586,-0.937147,-18.548029,-24.176315,-13.021081,,,,,,,5
1508446858.962147,-0.571986,1.331585,1.891212,0.094719,1.887503,-0.181490,-0.128255,-0.971525,-0.199223,-0.511089,-0.357470,-0.718761,-18.376431,-24.292881,-13.047407,,,,,,,5
1508446858.982172,-0.521235,1.333875,1.887386,0.046353,2.454092,-0.084569,-0.116875,-0.972065,-0.203542,-0.226845,0.092427,-0.344599,-17.461763,-24.434431,-14.004199,,,,,,,5
1508446859.002200,-0.466015,1.331230,1.875933,-0.330456,2.038050,-0.029433,-0.106617,-0.971441,-0.211979,-0.098155,0.223333,-0.065731,-16.761501,-24.433561,-14.836617,,,,,,,5
1508446859.022193,-0.411017,1.327582,1.859895,-0.059672,1.972494,-0.203995,-0.096219,-0.970569,-0.220766,-0.023593,0.351016,0.238070,-16.455151,-24.384516,-15.254358,,,,,,,5
1508446859.042198,-0.370468,1.340424,1.844505,0.936005,0.619625,-0.505575,-0.082671,-0.973582,-0.212849,0.120299,0.158091,0.685169,-15.453996,-24.548262,-16.019642,,,,,,,5
1508446859.062233,-0.400347,1.373783,1.860704,1.946190,-1.405298,-0.386970,-0.076288,-0.980655,-0.180264,0.262262,-0.202145,0.527386,-15.267960,-25.126167,-15.285196,,,,,,,5
1508446859.082231,-0.478111,1.411416,1.910830,1.422170,-0.842218,-0.453689,-0.073022,-0.987326,-0.140910,0.475655,-0.592936,-0.041127,-15.402861,-25.485285,-14.536995,,,,,,,5
1508446859.102256,-0.394245,1.414952,1.853258,-0.557791,2.170849,-0.365539,-0.059620,-0.987881,-0.143307,0.549366,-0.700474,-0.185214,-15.100594,-26.114044,-13.714987,,,,,,,5
1508446859.122247,-0.379952,1.407426,1.859756,-0.059944,0.162512,0.468617,-0.060321,-0.986685,-0.151045,0.340808,0.117117,0.349699,-14.670456,-26.034376,-14.319949,,,,,,,5
1508446859.142259,-0.494096,1.408072,1.956387,0.532312,-1.435524,0.778944,-0.076829,-0.986790,-0.142630,0.289934,0.356632,0.532813,-14.808824,-25.920603,-14.383781,,,,,,,5
1508446859.162285,-0.646174,1.412871,2.080433,0.893493,-1.240906,0.590418,-0.094698,-0.987556,-0.125563,0.080721,0.739982,1.009246,-15.941598,-25.812653,-13.328333,,,,,,,5
1508446859.182301,-0.794571,1.432138,2.231569,1.900767,1.039184,-0.074591,-0.098624,-0.990402,-0.096831,-0.144967,0.602356,1.126723,-16.273193,-25.915316,-12.714229,,,,,,,5
1508446859.202286,-1.063502,1.470846,2.548452,3.015512,2.667734,-0.514544,-0.087217,-0.995009,-0.048476,-0.219881,0.381880,0.916412,-16.055670,-26.286999,-12.218075,,,,,,,5
1508446859.222313,-1.652594,1.487603,-3.126230,2.366592,-0.891511,0.173750,-0.082819,-0.996541,0.006790,-0.602468,-0.613276,-0.764373,-15.055386,-27.475182,-10.794527,,,,,,,5
1508446859.242335,-1.960282,1.472503,-2.847289,1.006616,-0.711911,0.290430,-0.090785,-0.995173,0.037263,-0.305058,-0.475210,-0.092042,-15.585127,-27.704195,-9.362343,,,,,,,5
1508446859.262345,-2.113055,1.468308,-2.681369,0.806846,0.791210,-0.369159,-0.087632,-0.994753,0.052799,-0.174483,-0.350065,0.037045,-15.661551,-27.764271,-9.051695,,,,,,,5
1508446859.282334,-2.278772,1.461243,-2.518242,0.990188,-0.819243,-0.026016,-0.083059,-0.994005,0.071100,0.088949,0.153520,0.066733,-15.370731,-28.002331,-8.813750,,,,,,,5
1508446859.302371,-2.415132,1.439574,-2.403647,1.405874,-1.076092,0.407378,-0.086912,-0.991403,0.097812,0.269529,0.343133,0.033093,-15.593198,-28.244997,-7.559392,,,,,,,5
1508446859.322375,-2.528410,1.411934,-2.305796,1.544516,-0.699864,0.171369,-0.091037,-0.987408,0.129375,0.325763,0.272930,-0.028896,-15.782235,-28.286169,-6.991834,,,,,,,5
1508446859.342389,-2.634800,1.386378,-2.206766,1.508603,-0.279097,-0.113961,-0.089006,-0.983043,0.160326,0.201600,-0.115056,-0.043367,-16.009489,-28.510040,-5.380148,,,,,,,5
1508446859.362404,-2.704488,1.364789,-2.139255,1.042078,-0.091736,-0.072951,-0.086591,-0.978855,0.185322,0.007261,-0.135998,-0.060032,-15.972380,-28.679159,-4.523380,,,,,,,5
1508446859.382402,-2.732067,1.352246,-2.108649,0.553100,0.203014,-0.008621,-0.086330,-0.976213,0.198887,-0.069111,-0.105330,-0.084888,-15.955065,-28.732073,-4.239820,,,,,,,5
1508446859.402427,-2.743306,1.342457,-2.094356,0.545572,0.047160,0.078508,-0.087792,-0.974044,0.208642,-0.173744,0.043044,-0.162042,-15.939294,-28.799376,-3.821897,,,,,,,5
1508446859.422438,-2.760540,1.328339,-2.081313,0.818241,-0.410577,0.156010,-0.089289,-0.970751,0.222868,-0.142965,0.034670,-0.203169,-16.009752,-28.811344,-3.415610,,,,,,,5
1508446859.442430,-2.784733,1.309906,-2.068260,0.941806,-0.645292,0.191989,-0.090107,-0.966161,0.241690,-0.069393,0.024892,-0.192481,-16.071417,-28.812859,-3.098509,,,,,,,5
1508446859.462455,-2.807418,1.291413,-2.060589,0.881136,-0.845882,0.237120,-0.090447,-0.961226,0.260508,0.168374,0.025709,-0.145319,-16.292761,-28.787388,-1.975921,,,,,,,5
1508446859.482465,-2.828653,1.272980,-2.059418,0.892873,-1.105947,0.297711,-0.090335,-0.955980,0.279182,0.247348,0.054857,-0.105521,-16.473017,-28.729034,-1.163755,,,,,,,5
1508446859.502482,-2.855438,1.252672,-2.058634,1.035762,-1.432260,0.268831,-0.088288,-0.949824,0.300067,0.222978,0.098444,-0.055331,-16.569864,-28.687975,-0.715356,,,,,,,5
1508446859.522483,-2.891016,1.229616,-2.053793,1.169022,-1.558952,0.210209,-0.082968,-0.942361,0.324150,0.069418,0.070702,0.036980,-16.788898,-28.554634,0.915323,,,,,,,5
1508446859.542496,-2.925036,1.206677,-2.047667,1.108363,-1.309586,0.120459,-0.076520,-0.934438,0.347809,0.045957,0.041310,-0.014938,-16.841919,-28.481680,1.793269,,,,,,,5
1508446859.562517,-2.959529,1.185332,-2.037241,1.091557,-1.246359,-0.028696,-0.068076,-0.926624,0.369776,0.021369,0.021579,-0.089960,-16.849159,-28.415146,2.599492,,,,,,,5
1508446859.582512,-2.995088,1.162253,-2.026283,1.218176,-1.249438,0.021325,-0.057994,-0.917701,0.393017,-0.092244,-0.096872,-0.090710,-16.708799,-28.308468,4.185533,,,,,,,5
1508446859.602539,-3.017778,1.139129,-2.024148,1.051667,-0.868599,0.145878,-0.051670,-0.908269,0.415183,-0.197323,-0.177058,-0.015769,-16.648174,-28.168816,5.237195,,,,,,,5
1508446859.622544,-3.028794,1.123156,-2.024720,0.645930,-0.435250,0.060871,-0.048720,-0.901471,0.430089,-0.244645,-0.206882,-0.024952,-16.645054,-28.090313,5.652310,,,,,,,5
1508446859.642540,-3.038740,1.113317,-2.020345,0.418285,-0.231786,-0.117601,-0.045349,-0.897169,0.439354,-0.178925,-0.086977,-0.273460,-16.630196,-27.982037,6.205987,,,,,,,5
1508446859.662574,-3.049951,1.107975,-2.009627,0.260726,-0.021618,-0.191146,-0.040858,-0.894796,0.444601,0.000835,-0.179071,-0.479467,-16.476124,-27.977573,6.623054,,,,,,,5
1508446859.682554,-3.056415,1.102219,-2.006406,0.307334,-0.300275,0.026236,-0.038421,-0.892212,0.449980,0.025955,-0.240341,-0.524321,-16.428003,-27.986370,6.704917,,,,,,,5
1508446859.702598,-3.064057,1.098274,-2.007790,0.058266,-0.503011,0.036804,-0.035254,-0.890423,0.453767,-0.064920,-0.428440,-0.592622,-16.375248,-27.922640,7.088683,,,,,,,5
1508446859.722608,-3.071635,1.105182,-2.009116,-0.601895,-0.332823,-0.001524,-0.031383,-0.893546,0.447873,-0.162953,-0.481973,-0.684339,-16.314711,-27.943882,7.144354,,,,,,,5
1508446859.742618,-3.070298,1.124189,-2.011458,-1.133352,0.151693,-0.055587,-0.030767,-0.901918,0.430811,-0.150492,-0.492842,-0.736246,-16.295780,-27.991554,6.999460,,,,,,,5
1508446859.762626,-3.068142,1.153579,-2.005385,-1.677079,0.466461,-0.350513,-0.029737,-0.914220,0.404125,0.199201,-0.345896,-0.616863,-16.240053,-28.276934,5.894724,,,,,,,5
1508446859.782642,-3.076305,1.194432,-1.989622,-2.150549,0.135973,-0.451563,-0.023979,-0.930007,0.366759,0.265755,-0.237092,-0.439131,-16.102785,-28.525410,5.007347,,,,,,,5
1508446859.802629,-3.093560,1.236337,-1.977547,-1.999349,-0.567741,-0.253869,-0.015761,-0.944588,0.327880,0.262221,-0.199211,-0.125762,-15.921511,-28.776794,4.058782,,,,,,,5
1508446859.822650,-3.118900,1.275108,-1.972248,-1.930073,-1.232267,-0.102606,-0.006612,-0.956602,0.291323,-0.019862,-0.612978,0.254194,-15.654625,-29.086660,2.640247,,,,,,,5
1508446859.842671,3.138580,1.317793,-1.973759,-2.475634,-1.519823,0.214226,0.000754,-0.968165,0.250312,-0.098120,-0.571081,0.533242,-15.570583,-29.176970,2.081684,,,,,,,5
1508446859.862688,-3.041428,1.379473,-2.104774,-3.100157,-0.737222,1.540593,-0.019015,-0.981753,0.189205,-0.208936,-0.358319,0.673313,-15.669083,-29.168146,1.330864,,,,,,,5
1508446859.882678,-2.852203,1.431292,-2.308761,-2.678560,-0.466743,0.878813,-0.039681,-0.990285,0.133271,-0.406776,-0.126597,0.095581,-16.831116,-28.530531,-0.891308,,,,,,,5
1508446859.902695,-2.637267,1.470993,-2.521214,-2.113461,0.659523,0.109195,-0.048147,-0.995024,0.087233,-0.372798,-0.110521,0.013704,-17.133749,-28.299381,-1.910969,,,,,,,5
1508446859.922716,-2.307970,1.507365,-2.824711,-2.326449,1.685961,-0.162232,-0.046931,-0.997989,0.042610,-0.244939,-0.140912,0.133324,-17.160891,-28.189909,-2.984110,,,,,,,5
1508446859.942718,-1.370858,1.522365,2.551946,-2.509798,1.449819,0.026665,-0.047448,-0.998827,-0.009615,0.153924,-0.019941,0.310625,-16.876717,-27.925701,-5.779588,,,,,,,5
1508446859.962727,-0.664292,1.500188,1.869629,-2.132212,1.147950,-0.267510,-0.043494,-0.997508,-0.055548,0.288672,0.001292,0.230047,-16.651779,-27.642567,-7.528532,,,,,,,5
1508446859.982732,-0.344223,1.465114,1.570620,-2.171505,1.132907,-0.322147,-0.035598,-0.994421,-0.099297,0.296126,0.013861,0.293252,-16.485151,-27.520502,-8.302640,,,,,,,5
1508446860.002746,-0.195575,1.423577,1.442495,-2.240996,1.000851,-0.122649,-0.028506,-0.989183,-0.143891,0.161364,0.226945,0.455766,-15.935662,-27.040777,-10.626526,,,,,,,5
1508446860.022778,-0.143585,1.379548,1.408016,-2.163741,0.868032,0.184535,-0.027200,-0.981768,-0.188129,0.015847,0.243822,0.431476,-15.728096,-26.528831,-12.121061,,,,,,,5
1508446860.042772,-0.124987,1.339501,1.406492,-1.867886,0.852248,0.272145,-0.028577,-0.973370,-0.227451,-0.047778,0.235943,0.419543,-15.674195,-26.230844,-12.819300,,,,,,,5
1508446860.062798,-0.109491,1.306913,1.408393,-1.442839,0.863270,0.146827,-0.028502,-0.965384,-0.259270,-0.089601,0.268759,0.397866,-15.511878,-25.369047,-14.624128,,,,,,,5
1508446860.082812,-0.087666,1.281641,1.401984,-1.160329,0.761596,-0.025536,-0.024965,-0.958485,-0.284047,0.007631,0.236058,0.406865,-15.308508,-24.940922,-15.545806,,,,,,,5
1508446860.102800,-0.065301,1.261965,1.391310,-0.883227,0.480740,-0.097993,-0.019834,-0.952689,-0.303298,0.073575,0.220130,0.385359,-15.181752,-24.769421,-15.939331,,,,,,,5
1508446860.122825,-0.054359,1.249079,1.383399,-0.499726,-0.043052,-0.057957,-0.017180,-0.948694,-0.315730,0.222303,0.235757,0.348795,-14.915325,-24.403893,-16.734852,,,,,,,5
1508446860.142846,-0.062766,1.243790,1.383134,-0.133339,-0.646276,0.048956,-0.020148,-0.947008,-0.320577,0.263510,0.268755,0.367117,-15.002463,-24.289082,-16.823753,,,,,,,5
1508446860.162859,-0.083081,1.244848,1.385413,0.154450,-1.058814,-0.008606,-0.026573,-0.947348,-0.319103,0.276496,0.294302,0.345165,-15.133867,-24.265165,-16.740368,,,,,,,5
1508446860.182853,-0.103782,1.250026,1.376821,0.262701,-1.719342,-0.226485,-0.032663,-0.948993,-0.313601,0.163691,0.374210,0.277941,-15.660212,-24.373178,-16.086578,,,,,,,5
1508446860.202870,-0.135923,1.257669,1.371667,0.469037,-1.816639,-0.070467,-0.041740,-0.951375,-0.305194,0.091240,0.292577,0.208026,-16.154213,-24.525625,-15.349504,,,,,,,5
1508446860.222883,-0.166983,1.269357,1.370476,0.591356,-1.472597,-0.095816,-0.049346,-0.954910,-0.292766,0.013961,0.252563,0.120753,-16.404287,-24.614216,-14.936928,,,,,,,5
1508446860.242899,-0.195002,1.282004,1.377954,0.675957,-0.751943,0.028938,-0.055184,-0.958589,-0.279397,-0.220634,0.024095,-0.153709,-16.939634,-24.909500,-13.807158,,,,,,,5
1508446860.262898,-0.208571,1.294361,1.389576,0.562568,0.273293,0.036231,-0.056513,-0.962034,-0.267013,-0.309545,-0.080171,-0.342820,-17.055803,-25.039246,-13.424150,,,,,,,5
1508446860.282915,-0.203818,1.299994,1.401797,0.141364,1.089828,0.162205,-0.054145,-0.963557,-0.261967,-0.333519,-0.141805,-0.425746,-17.016287,-25.140701,-13.283947,,,,,,,5
1508446860.302940,-0.198453,1.298819,1.421734,-0.052742,1.166988,0.324632,-0.052963,-0.963242,-0.263364,-0.332795,-0.198776,-0.498675,-16.718607,-25.098770,-13.733612,,,,,,,5
1508446860.322949,-0.200044,1.295849,1.441706,-0.121608,0.730157,0.253460,-0.053950,-0.962439,-0.266082,-0.239721,-0.158776,-0.347275,-16.598690,-24.974123,-14.101372,,,,,,,5
1508446860.342946,-0.199305,1.289890,1.452611,-0.351357,0.492081,0.186434,-0.054887,-0.960805,-0.271738,-0.183729,-0.157924,-0.331777,-16.561155,-24.913715,-14.251558,,,,,,,5
1508446860.362956,-0.192180,1.283972,1.456378,-0.150924,0.623051,-0.000272,-0.054035,-0.959147,-0.277700,0.003193,-0.184148,0.281987,-16.462898,-24.694265,-14.739006,,,,,,,5
1508446860.382983,-0.172018,1.289601,1.450398,0.560501,0.816540,-0.155030,-0.047501,-0.960724,-0.273409,0.273575,-0.464233,0.288668,-16.216623,-24.749954,-14.917538,,,,,,,5
1508446860.402982,-0.157222,1.306594,1.460384,0.891821,1.605589,0.123006,-0.040888,-0.965301,-0.257919,0.359278,-0.565827,0.168990,-16.053123,-24.869446,-14.895633,,,,,,,5
1508446860.422989,-0.142993,1.312291,1.492088,-0.130212,2.405024,0.432468,-0.036430,-0.966773,-0.253026,0.185096,-0.004174,0.147924,-15.401927,-25.097137,-15.198236,,,,,,,5
1508446860.443016,-0.122468,1.296349,1.508573,-0.917315,1.399861,0.256981,-0.033108,-0.962575,-0.268985,0.286083,0.158269,0.478839,-14.935532,-24.809351,-16.108942,,,,,,,5
1508446860.463029,-0.118740,1.287037,1.521836,-0.062735,0.444022,0.156838,-0.033165,-0.960010,-0.277995,0.372627,0.165332,0.488108,-14.789636,-24.631021,-16.512163,,,,,,,5
1508446860.483040,-0.099583,1.294176,1.499133,0.410768,-0.390841,-0.644831,-0.027152,-0.961984,-0.271753,0.385428,0.145517,0.356974,-14.616587,-24.628326,-16.669521,,,,,,,5
1508446860.503051,-0.061280,1.303483,1.448236,0.422520,-0.516157,-0.632052,-0.016176,-0.964484,-0.263645,0.043657,-0.010064,0.602115,-14.424914,-24.971935,-16.321655,,,,,,,5
1508446860.523057,-0.043040,1.312643,1.426891,0.445770,0.086988,-0.095838,-0.010984,-0.966863,-0.255059,-0.050493,0.009313,0.656091,-14.353151,-25.124155,-16.150417,,,,,,,5
1508446860.543055,-0.060852,1.325013,1.446906,0.767452,0.016523,0.459367,-0.014797,-0.969947,-0.242866,-0.241306,-0.084237,0.281959,-14.302846,-25.390713,-15.773790,,,,,,,5
1508446860.563069,-0.127574,1.341134,1.503694,0.885790,-0.774487,0.599227,-0.028963,-0.973743,-0.225799,-0.219007,-0.030178,0.124846,-14.702397,-25.489044,-15.238773,,,,,,,5
1508446860.583075,-0.207167,1.354460,1.569130,0.709014,-0.740377,0.605247,-0.044152,-0.976690,-0.210063,-0.172538,-0.042276,0.119655,-14.974030,-25.530861,-14.900522,,,,,,,5
1508446860.603090,-0.287304,1.364261,1.640025,0.641740,-0.386548,0.615606,-0.058110,-0.978747,-0.196664,-0.076106,-0.087705,0.035028,-15.732969,-25.561493,-14.041219,,,,,,,5
1508446860.623109,-0.365685,1.371230,1.717252,0.525536,0.002231,0.588323,-0.070890,-0.980153,-0.185136,-0.002795,-0.057399,0.068407,-16.121025,-25.528528,-13.655725,,,,,,,5
1508446860.643111,-0.418147,1.374802,1.776125,0.278648,0.434032,0.388569,-0.079078,-0.980855,-0.177963,0.037025,-0.044246,0.117447,-16.257372,-25.506454,-13.534799,,,,,,,5
1508446860.663132,-0.434195,1.377826,1.803995,0.263157,0.539207,0.084003,-0.080676,-0.981439,-0.173980,0.045672,0.087014,0.118377,-16.328773,-25.466036,-13.524946,,,,,,,5
1508446860.683153,-0.439675,1.386190,1.817897,0.552191,0.342807,-0.138420,-0.078131,-0.983009,-0.166101,0.067877,0.069770,0.060251,-16.203474,-25.564802,-13.489270,,,,,,,5
1508446860.703162,-0.440919,1.399825,1.824968,0.646133,0.258430,-0.253766,-0.072611,-0.985420,-0.153868,0.056650,-0.021447,0.012663,-16.117624,-25.669334,-13.393267,,,,,,,5
1508446860.723172,-0.456404,1.410971,1.848194,0.541048,0.457359,0.111789,-0.070139,-0.987255,-0.142856,-0.022238,0.167049,-0.051587,-15.847923,-26.008976,-13.055595,,,,,,,5
1508446860.743187,-0.506795,1.418878,1.907488,0.550519,0.223037,0.242654,-0.073455,-0.988483,-0.132313,-0.036973,0.201709,-0.145046,-15.826654,-26.093735,-12.911472,,,,,,,5
1508446860.763182,-0.574740,1.425785,1.974227,0.602928,-0.223196,0.235296,-0.078554,-0.989504,-0.121287,-0.033918,0.154574,-0.215154,-15.873466,-26.123457,-12.793365,,,,,,,5
1508446860.783189,-0.645035,1.432096,2.038639,0.396636,-0.366895,0.122751,-0.083123,-0.990396,-0.110478,-0.010505,-0.041113,-0.284847,-16.139935,-26.223549,-12.243364,,,,,,,5
1508446860.803221,-0.686959,1.435390,2.065597,0.480000,-0.516144,-0.014026,-0.085611,-0.990847,-0.104374,-0.109503,0.163759,-0.360821,-16.354551,-26.252516,-11.891433,,,,,,,5
1508446860.823228,-0.725669,1.448532,2.099737,0.665529,0.027664,-0.319794,-0.080937,-0.992535,-0.091232,-0.135494,0.067913,-0.220489,-16.383554,-26.333817,-11.669674,,,,,,,5
1508446860.843223,-0.748000,1.465086,2.128868,0.691203,0.404161,-0.496045,-0.071767,-0.994418,-0.077347,-0.208750,-0.002271,-0.249268,-16.085907,-26.740021,-11.148408,,,,,,,5
1508446860.863256,-0.747327,1.481709,2.135632,0.590148,0.333979,-0.531004,-0.060471,-0.996034,-0.065260,-0.187530,-0.002165,-0.215380,-15.713984,-27.054276,-10.918280,,,,,,,5
1508446860.883239,-0.762395,1.495248,2.157862,0.529061,0.345416,-0.307903,-0.052128,-0.997148,-0.054583,-0.053310,0.039887,-0.290403,-15.461184,-27.260830,-10.764339,,,,,,,5
1508446860.903260,-0.813310,1.504179,2.212837,0.406387,0.094416,-0.105740,-0.048366,-0.997782,-0.045739,-0.004002,0.083933,-0.328101,-15.210955,-27.491703,-10.531154,,,,,,,5
1508446860.923268,-0.849714,1.510968,2.247826,0.250326,-0.127157,-0.303108,-0.044910,-0.998211,-0.039475,0.022037,0.136318,-0.278671,-15.144925,-27.603148,-10.332937,,,,,,,5
1508446860.943297,-0.808273,1.518161,2.204175,0.095960,-0.082547,-0.328838,-0.038043,-0.998615,-0.036341,0.014407,0.116321,-0.270178,-15.067212,-27.676348,-10.250411,,,,,,,5
1508446860.963293,-0.767359,1.521082,2.161209,-0.026881,-0.149614,-0.083947,-0.034499,-0.998765,-0.035767,-0.020783,0.109589,-0.251007,-14.862391,-27.828913,-10.135730,,,,,,,5
1508446860.983323,-0.651173,1.521856,2.040496,-0.233926,-0.231321,-0.392364,-0.029652,-0.998803,-0.038910,-0.158886,0.025414,-0.302765,-14.839370,-27.843784,-10.128616,,,,,,,5
1508446861.003317,-0.471819,1.519502,1.855551,-0.469533,-0.243336,-0.218635,-0.023303,-0.998685,-0.045670,-0.332547,-0.280734,-0.445648,-14.718983,-27.892061,-10.171358,,,,,,,5
1508446861.023346,-0.306053,1.500169,1.687856,-1.558129,0.096635,-0.072976,-0.021262,-0.997507,-0.067290,-0.549432,-0.756857,-0.619615,-14.607186,-27.781437,-10.625154,,,,,,,5
1508446861.043357,-0.176089,1.460474,1.569018,-2.164489,0.918354,-0.011345,-0.019287,-0.993921,-0.108396,-0.324646,-0.434439,0.064817,-14.488749,-27.373840,-11.782235,,,,,,,5
1508446861.063341,-0.106788,1.422171,1.520597,-1.773593,0.977310,-0.104966,-0.015783,-0.988976,-0.147235,-0.130335,-0.300590,0.022952,-14.294151,-26.989252,-12.858052,,,,,,,5
1508446861.083366,-0.043767,1.390175,1.469915,-1.573683,0.460886,-0.415676,-0.007860,-0.983732,-0.179469,-0.074126,-0.083971,0.112758,-13.887630,-26.469936,-14.302037,,,,,,,5
1508446861.103391,0.033048,1.359824,1.398105,-1.492065,0.390467,-0.794105,0.006919,-0.977828,-0.209297,0.047097,-0.107011,0.388221,-13.475353,-26.177946,-15.205326,,,,,,,5
1508446861.123376,0.096777,1.331203,1.344795,-1.315835,0.630194,-0.566743,0.022930,-0.971435,-0.236197,0.116825,-0.091203,0.434317,-13.475353,-26.177946,-15.205326,,,,,,,5
1508446861.143393,0.125309,1.307085,1.324161,-1.060590,0.235855,-0.285971,0.032578,-0.965429,-0.258622,0.168624,0.260382,0.370652,-12.512198,-25.636190,-16.861279,,,,,,,5
1508446861.163425,0.129731,1.289729,1.313389,-0.712358,-0.475498,-0.116470,0.035884,-0.960760,-0.275050,0.351415,0.234533,0.333873,-12.396793,-25.444052,-17.233448,,,,,,,5
1508446861.183436,0.118006,1.273324,1.323908,-1.023869,0.253908,0.020992,0.034508,-0.956080,-0.291066,0.396049,0.208476,0.294103,-12.464664,-25.276312,-17.430212,,,,,,,5
,,,,,,,,,,,,,,,,42.293325,-71.264194,60.348499,-1.000000,-1.000000,1508446861.161117,5
1508446861.203449,0.115215,1.251274,1.341583,-1.081062,0.882672,0.276534,0.036111,-0.949386,-0.312030,0.002372,-0.072404,0.182819,-12.342390,-24.707417,-18.310682,,,,,,,5
1508446861.223461,0.097442,1.233467,1.380032,-0.848535,0.835034,0.662790,0.032199,-0.943642,-0.329399,-0.015323,-0.066154,-0.051461,-12.198261,-24.226082,-19.036057,,,,,,,5
1508446861.243471,0.067885,1.220478,1.428385,-0.693301,0.944701,0.756787,0.023280,-0.939264,-0.342406,-0.004862,-0.053473,0.073287,-12.215281,-23.985901,-19.327068,,,,,,,5
1508446861.263474,0.059175,1.205575,1.468115,-0.833908,1.679296,0.581564,0.021122,-0.934045,-0.356531,-0.005894,0.047784,0.176553,-12.083652,-23.287731,-20.242010,,,,,,,5
1508446861.283467,0.068785,1.189898,1.496767,-0.776127,1.814538,0.379842,0.025551,-0.928331,-0.370875,0.024010,0.145799,0.146678,-11.588726,-22.821537,-21.046402,,,,,,,5
1508446861.303504,0.093307,1.176252,1.508230,-0.663667,1.718704,0.029332,0.035814,-0.923172,-0.382715,0.042936,0.149338,0.207025,-11.282439,-22.622280,-21.424541,,,,,,,5
1508446861.323517,0.127635,1.163311,1.505243,-0.621598,1.449093,-0.204768,0.050445,-0.918120,-0.393079,0.197480,0.109816,0.223187,-10.179381,-22.183636,-22.412910,,,,,,,5
1508446861.343528,0.161450,1.151776,1.490888,-0.457788,0.719169,-0.512744,0.065403,-0.913488,-0.401574,0.412426,0.247228,0.168756,-9.499594,-21.982689,-22.903955,,,,,,,5
1508446861.363538,0.196294,1.142990,1.459498,-0.218492,0.122084,-0.795507,0.080916,-0.909878,-0.406909,0.454485,0.335644,0.194079,-9.112750,-21.927795,-23.112803,,,,,,,5
1508446861.383552,0.221997,1.138862,1.425283,0.046668,-0.584937,-0.614976,0.092173,-0.908157,-0.408355,0.466512,0.318939,0.172241,-8.703634,-22.011093,-23.191175,,,,,,,5
1508446861.403562,0.217731,1.140610,1.419805,0.025662,-0.129143,0.307264,0.090087,-0.908888,-0.407193,0.084306,0.036040,0.187040,-8.827392,-22.121153,-23.039179,,,,,,,5
1508446861.423553,0.186501,1.143088,1.451426,0.077221,-0.370975,0.727016,0.076910,-0.909919,-0.407594,0.035608,0.194190,0.040788,-9.008673,-22.041538,-23.045315,,,,,,,5
1508446861.443565,0.142504,1.151835,1.483268,0.428802,-0.764259,0.716844,0.057776,-0.913512,-0.402688,0.237283,0.235259,0.201577,-9.719861,-21.982113,-22.811909,,,,,,,5
1508446861.463596,0.111314,1.162772,1.510839,0.558952,-0.250113,0.426567,0.044078,-0.917907,-0.394341,0.334676,0.228301,0.056359,-10.217497,-22.043358,-22.533646,,,,,,,5
1508446861.483598,0.113240,1.178899,1.500278,0.910628,-0.319907,-0.339328,0.043159,-0.924186,-0.379496,0.341393,-0.099969,0.140361,-10.407944,-22.242222,-22.249277,,,,,,,5
