timestamp(unix),attitude_roll(radians),attitude_pitch(radians),attitude_yaw(radians),rotation_rate_x(radians/s),rotation_rate_y(radians/s),rotation_rate_z(radians/s),gravity_x(G),gravity_y(G),gravity_z(G),user_acc_x(G),user_acc_y(G),user_acc_z(G),magnetic_field_x(microteslas),magnetic_field_y(microteslas),magnetic_field_z(microteslas),latitude(degree),longitude(degree),altitude(meter),speed(m/s),course(degree),timestamp(unix),User Mark
1508446628.574863,0.029068,0.047503,0.013217,-0.033026,0.028658,0.060776,0.029031,-0.047485,-0.998450,-0.042947,0.116211,0.083045,-6.733578,-14.486195,-43.348560,,,,,,,5
1508446628.594864,0.028389,0.049772,0.013294,0.136421,-0.041779,-0.006023,0.028351,-0.049751,-0.998359,-0.001800,0.015480,0.000068,-6.743700,-14.513323,-43.337910,,,,,,,5
1508446628.614880,0.028494,0.051358,0.013042,0.022487,-0.005620,-0.012259,0.028452,-0.051335,-0.998276,0.011373,-0.010753,-0.026214,-6.767310,-14.599125,-43.305397,,,,,,,5
,,,,,,,,,,,,,,,,42.293442,-71.264337,58.765549,-1.000000,-1.000000,1508446625.666613,5
1508446628.634890,0.028279,0.051167,0.012994,-0.014803,-0.011919,0.003399,0.028238,-0.051144,-0.998292,-0.001977,-0.018497,0.013673,-6.761906,-14.640036,-43.292427,,,,,,,5
,,,,,,,,,,,,,,,,42.293368,-71.264132,58.765549,-1.000000,-1.000000,1508446600.200524,5
1508446628.654892,0.028209,0.051028,0.013131,-0.003100,0.001889,0.004571,0.028168,-0.051006,-0.998301,0.006332,-0.001423,0.015818,-6.769488,-14.630493,-43.294468,,,,,,,5
,,,,,,,,,,,,,,,,42.293442,-71.264337,58.765549,-1.000000,-1.000000,1508446625.666613,5
1508446628.674910,0.028647,0.051092,0.012996,0.005443,0.011387,-0.012387,0.028606,-0.051070,-0.998285,0.008153,0.000075,0.012552,-6.768189,-14.629410,-43.295036,,,,,,,5
1508446628.694922,0.029051,0.051240,0.012659,0.005443,0.025183,-0.016636,0.029009,-0.051217,-0.998266,-0.004503,-0.006614,0.009497,-6.733843,-14.640785,-43.296547,,,,,,,5
1508446628.714951,0.029840,0.051160,0.012401,-0.010487,0.046610,-0.011400,0.029797,-0.051137,-0.998247,-0.004345,-0.009074,-0.002241,-6.700702,-14.643032,-43.300930,,,,,,,5
1508446628.734942,0.030930,0.051017,0.012221,-0.016883,0.055119,-0.009317,0.030885,-0.050994,-0.998221,0.007262,-0.005066,-0.015222,-6.677306,-14.638754,-43.305988,,,,,,,5
,,,,,,,,,,,,,,,,42.293646,-71.264906,58.765549,-1.000000,-1.000000,1508446628.731012,5
1508446628.754958,0.031660,0.050625,0.012030,-0.018991,0.020056,-0.011490,0.031614,-0.050603,-0.998218,0.007967,0.008596,0.000065,-6.611298,-14.624788,-43.320831,,,,,,,5
1508446628.774982,0.031724,0.050025,0.011750,0.001266,-0.022461,-0.015614,0.031679,-0.050004,-0.998246,0.002394,0.007386,0.014406,-6.599583,-14.605252,-43.329212,,,,,,,5
1508446628.794995,0.031355,0.050415,0.011394,0.028949,-0.015046,-0.017510,0.031310,-0.050394,-0.998239,0.001160,0.002008,0.016763,-6.604159,-14.600561,-43.330093,,,,,,,5
,,,,,,,,,,,,,,,,42.293704,-71.265071,58.765549,-1.000000,-1.000000,1508446628.743381,5
,,,,,,,,,,,,,,,,42.293749,-71.265201,58.765549,-1.000000,-1.000000,1508446628.767925,5
,,,,,,,,,,,,,,,,42.293785,-71.265304,58.765549,-1.000000,-1.000000,1508446628.778073,5
1508446628.814990,0.031018,0.051515,0.011092,0.022554,-0.009720,-0.014364,0.030972,-0.051492,-0.998193,-0.005993,-0.013266,0.000604,-6.617609,-14.646984,-43.312370,,,,,,,5
1508446628.835014,0.030231,0.052152,0.010888,-0.001933,-0.028812,-0.009257,0.030185,-0.052128,-0.998184,-0.004901,-0.006343,0.001541,-6.642750,-14.688387,-43.294498,,,,,,,5
1508446628.855005,0.029821,0.052164,0.010741,-0.003013,-0.003308,-0.007117,0.029776,-0.052140,-0.998196,-0.000250,0.001069,0.009731,-6.660156,-14.695313,-43.289471,,,,,,,5
1508446628.875009,0.030260,0.052097,0.010603,0.003423,0.032971,-0.008067,0.030215,-0.052074,-0.998186,0.001447,0.001811,0.010454,-6.659675,-14.696229,-43.289234,,,,,,,5
1508446628.895047,0.030983,0.052171,0.010329,0.000244,0.032944,-0.016611,0.030936,-0.052147,-0.998160,-0.000968,-0.000984,0.005301,-6.649676,-14.695829,-43.290905,,,,,,,5
1508446628.915032,0.031372,0.052307,0.009876,-0.003993,0.020167,-0.025173,0.031324,-0.052283,-0.998141,-0.002653,-0.004663,0.004733,-6.603136,-14.705336,-43.294804,,,,,,,5
1508446628.935049,0.031858,0.052602,0.009289,-0.000782,0.008463,-0.030479,0.031809,-0.052577,-0.998110,0.006140,-0.007909,0.007235,-6.575370,-14.718326,-43.294617,,,,,,,5
1508446628.955063,0.032268,0.052739,0.008645,0.000288,0.007394,-0.032601,0.032218,-0.052715,-0.998090,0.014932,-0.004674,0.009061,-6.556652,-14.729680,-43.293594,,,,,,,5
1508446628.975061,0.032846,0.052825,0.007843,0.004569,-0.003263,-0.042156,0.032794,-0.052801,-0.998066,0.019422,-0.001872,0.008488,-6.534949,-14.740246,-43.293278,,,,,,,5
,,,,,,,,,,,,,,,,42.293429,-71.264164,58.074623,-1.000000,-1.000000,1508446628.943380,5
1508446628.995073,0.033505,0.052881,0.006894,0.007775,-0.020266,-0.044273,0.033452,-0.052856,-0.998042,0.017391,0.001999,0.003245,-6.481328,-14.757619,-43.295422,,,,,,,5
1508446629.015103,0.033444,0.052820,0.005937,0.003532,-0.030907,-0.050704,0.033391,-0.052795,-0.998047,0.006480,0.003174,0.003281,-6.455213,-14.761745,-43.297913,,,,,,,5
1508446629.035092,0.032745,0.052925,0.004712,0.008896,-0.057519,-0.065587,0.032693,-0.052901,-0.998064,0.004233,-0.002214,0.006686,-6.459489,-14.768336,-43.295025,,,,,,,5
1508446629.055118,0.031706,0.053858,0.003448,0.028119,-0.056259,-0.055806,0.031654,-0.053832,-0.998048,-0.002571,-0.020357,0.013826,-6.491923,-14.804659,-43.277771,,,,,,,5
1508446629.075142,0.030505,0.055644,0.002506,0.037686,-0.038183,-0.049324,0.030453,-0.055615,-0.997988,-0.010403,-0.021243,0.007662,-6.524593,-14.881067,-43.246639,,,,,,,5
1508446629.095142,0.029458,0.056631,0.001244,0.010049,-0.062666,-0.067671,0.029406,-0.056600,-0.997964,-0.001696,-0.025934,0.010323,-6.545261,-14.921195,-43.229687,,,,,,,5
1508446629.115158,0.028744,0.057621,-0.000045,0.008981,-0.067956,-0.062360,0.028693,-0.057589,-0.997928,0.025110,-0.010892,0.006824,-6.590607,-14.996364,-43.196774,,,,,,,5
1508446629.135174,0.028857,0.058417,-0.001508,0.026052,-0.097740,-0.072890,0.028804,-0.058384,-0.997879,0.039449,-0.010296,-0.001587,-6.585166,-15.044800,-43.180759,,,,,,,5
1508446629.155163,0.027050,0.059238,-0.003361,0.036793,-0.174338,-0.103737,0.027000,-0.059203,-0.997881,0.044137,-0.009828,-0.005461,-6.580568,-15.071602,-43.172115,,,,,,,5
1508446629.175169,0.024537,0.060483,-0.006245,0.044387,-0.254206,-0.160167,0.024490,-0.060446,-0.997871,0.016068,-0.005640,-0.001809,-6.661575,-15.168161,-43.125847,,,,,,,5
1508446629.195205,0.018741,0.061175,-0.010126,0.047699,-0.234045,-0.209071,0.018705,-0.061137,-0.997954,-0.033124,0.009730,-0.007112,-6.690059,-15.188501,-43.114277,,,,,,,5
1508446629.215190,0.016082,0.061351,-0.013802,-0.018500,-0.082941,-0.146684,0.016051,-0.061313,-0.997990,-0.053389,0.019580,-0.015118,-6.919079,-15.263591,-43.051567,,,,,,,5
1508446629.235201,0.016292,0.059942,-0.014897,-0.092290,0.053586,-0.001320,0.016262,-0.059906,-0.998072,-0.057888,0.049377,0.006220,-6.947889,-15.251549,-43.051197,,,,,,,5
1508446629.255239,0.018166,0.058158,-0.013547,-0.074387,0.110220,0.095763,0.018135,-0.058126,-0.998145,-0.007713,0.032765,0.024390,-6.888568,-15.164133,-43.091587,,,,,,,5
1508446629.275221,0.019936,0.057481,-0.011230,-0.017980,0.072034,0.120689,0.019902,-0.057449,-0.998150,0.066860,0.008194,0.010235,-6.841905,-15.115933,-43.115952,,,,,,,5
1508446629.295239,0.019984,0.057069,-0.009092,-0.035977,-0.030045,0.090650,0.019950,-0.057038,-0.998173,0.106667,-0.004028,-0.012615,-6.836180,-15.074680,-43.131298,,,,,,,5
1508446629.315261,0.018133,0.055506,-0.007872,-0.098670,-0.125780,0.045341,0.018104,-0.055477,-0.998296,0.081155,0.014950,-0.028743,-6.888096,-15.031355,-43.138157,,,,,,,5
1508446629.335260,0.014769,0.053769,-0.007056,-0.063487,-0.182138,0.034941,0.014747,-0.053743,-0.998446,0.053659,0.026278,-0.025541,-6.978906,-14.963301,-43.147221,,,,,,,5
1508446629.355273,0.010847,0.053902,-0.006554,0.045180,-0.198054,0.018817,0.010831,-0.053876,-0.998489,-0.024625,0.011197,-0.022995,-7.230594,-14.898934,-43.128048,,,,,,,5
1508446629.375302,0.006823,0.055308,-0.006425,0.067567,-0.199183,0.003030,0.006812,-0.055280,-0.998448,-0.028800,-0.041873,-0.009090,-7.406777,-14.953064,-43.079391,,,,,,,5
1508446629.395285,0.003081,0.055877,-0.006288,-0.001672,-0.176798,0.014188,0.003076,-0.055848,-0.998435,-0.028909,-0.067901,0.003561,-7.492272,-14.979240,-43.055504,,,,,,,5
1508446629.415319,-0.000032,0.054906,-0.005786,-0.071987,-0.139532,0.027477,-0.000032,-0.054879,-0.998493,-0.021727,-0.059684,0.025120,-7.720892,-14.961855,-43.021145,,,,,,,5
1508446629.435334,-0.002472,0.053263,-0.005213,-0.080519,-0.108724,0.026365,-0.002468,-0.053238,-0.998579,-0.022724,-0.020722,0.036573,-7.812403,-14.907660,-43.023441,,,,,,,5
1508446629.455309,-0.004153,0.051885,-0.004825,-0.059223,-0.065223,0.013797,-0.004147,-0.051862,-0.998646,-0.038074,0.010327,0.033909,-7.888337,-14.852297,-43.028732,,,,,,,5
1508446629.475329,-0.004854,0.051051,-0.004688,-0.030481,-0.014286,0.002361,-0.004848,-0.051029,-0.998685,-0.045872,0.025943,0.012937,-7.971175,-14.777454,-43.039234,,,,,,,5
1508446629.495366,-0.004341,0.050750,-0.004842,-0.008122,0.046197,-0.014445,-0.004336,-0.050729,-0.998703,-0.039442,0.018670,0.000259,-7.961453,-14.760227,-43.046944,,,,,,,5
1508446629.515353,-0.002925,0.050718,-0.005332,0.000405,0.081197,-0.029255,-0.002922,-0.050696,-0.998710,-0.035424,0.012732,-0.002984,-7.961453,-14.760227,-43.046944,,,,,,,5
1508446629.535382,-0.001785,0.050898,-0.005928,0.004672,0.098297,-0.031307,-0.001783,-0.050876,-0.998703,-0.022021,-0.003384,-0.002700,-7.818717,-14.767052,-43.070755,,,,,,,5
1508446629.555397,0.000520,0.050997,-0.006411,0.006769,0.122771,-0.019559,0.000520,-0.050974,-0.998700,-0.015580,-0.018972,-0.003406,-7.749245,-14.779600,-43.079010,,,,,,,5
1508446629.575410,0.003510,0.051758,-0.006658,0.000350,0.139821,-0.005757,0.003506,-0.051735,-0.998655,0.006977,-0.021477,-0.003802,-7.662488,-14.784987,-43.092678,,,,,,,5
1508446629.595416,0.006294,0.051610,-0.006694,-0.012436,0.136664,0.000523,0.006286,-0.051587,-0.998649,0.019059,-0.011630,-0.002084,-7.498398,-14.813136,-43.111866,,,,,,,5
1508446629.615432,0.009400,0.051226,-0.006661,-0.017753,0.111184,0.003654,0.009388,-0.051203,-0.998644,0.017712,0.001765,0.003298,-7.413140,-14.803495,-43.129921,,,,,,,5
1508446629.635441,0.011211,0.050925,-0.006569,-0.012413,0.078249,0.003673,0.011196,-0.050903,-0.998641,0.010624,0.009078,0.010772,-7.292883,-14.786291,-43.156319,,,,,,,5
1508446629.655444,0.012330,0.050827,-0.006466,0.001446,0.044248,0.003762,0.012314,-0.050805,-0.998633,0.009293,0.007821,0.011969,-7.258340,-14.779936,-43.164314,,,,,,,5
1508446629.675461,0.013220,0.050932,-0.006478,0.025955,0.020847,-0.001377,0.013202,-0.050910,-0.998616,0.011731,0.003638,0.008443,-7.196559,-14.779114,-43.174942,,,,,,,5
1508446629.695472,0.013546,0.051599,-0.006550,0.033414,0.016678,-0.002341,0.013528,-0.051577,-0.998577,0.010825,-0.001204,0.004834,-7.165050,-14.793756,-43.175167,,,,,,,5
1508446629.715483,0.014095,0.052285,-0.006537,0.007842,0.032649,0.003849,0.014075,-0.052261,-0.998534,0.001214,-0.008988,-0.007050,-7.143182,-14.823131,-43.168716,,,,,,,5
1508446629.735494,0.014898,0.052347,-0.006316,-0.018803,0.053942,0.013228,0.014877,-0.052323,-0.998519,-0.003494,-0.001327,-0.002732,-7.113281,-14.843779,-43.166557,,,,,,,5
1508446629.755503,0.016221,0.051208,-0.006083,-0.030516,0.075173,0.006759,0.016199,-0.051185,-0.998558,0.002096,0.009727,0.002037,-7.083056,-14.816605,-43.180862,,,,,,,5
1508446629.775517,0.018329,0.050025,-0.006223,-0.017696,0.049607,-0.012320,0.018305,-0.050004,-0.998581,0.015127,0.011628,0.002808,-6.989169,-14.758257,-43.216125,,,,,,,5
1508446629.795525,0.019983,0.049281,-0.006667,0.002577,-0.009918,-0.020717,0.019957,-0.049261,-0.998587,0.022050,0.008734,0.002294,-6.910883,-14.720243,-43.241676,,,,,,,5
1508446629.815532,0.019822,0.049281,-0.007057,0.014304,-0.065140,-0.014273,0.019796,-0.049261,-0.998590,0.022104,0.002371,-0.005927,-6.881551,-14.711843,-43.249210,,,,,,,5
1508446629.835528,0.018983,0.050138,-0.007277,0.013235,-0.108542,-0.004655,0.018958,-0.050117,-0.998563,0.004785,-0.009865,-0.003268,-6.895618,-14.736126,-43.238701,,,,,,,5
1508446629.855557,0.015953,0.050636,-0.007246,0.010043,-0.132953,0.001689,0.015932,-0.050615,-0.998591,-0.013628,-0.004698,-0.002263,-6.964750,-14.755423,-43.221035,,,,,,,5
1508446629.875561,0.012556,0.051089,-0.007209,0.021764,-0.146775,0.000711,0.012539,-0.051067,-0.998617,-0.017620,-0.004460,0.000249,-7.074752,-14.775080,-43.196449,,,,,,,5
1508446629.895579,0.007811,0.052828,-0.007042,0.030276,-0.143580,0.006108,0.007800,-0.052804,-0.998574,-0.021869,-0.020545,-0.005179,-7.341581,-14.836231,-43.130913,,,,,,,5
1508446629.915590,0.004370,0.054264,-0.006693,0.047288,-0.141417,0.020092,0.004364,-0.054237,-0.998519,-0.022018,-0.023659,-0.002351,-7.399319,-14.865569,-43.110943,,,,,,,5
1508446629.935599,0.001394,0.055579,-0.006350,0.078186,-0.156331,0.012883,0.001392,-0.055550,-0.998455,-0.019931,-0.027076,0.008022,-7.616619,-14.947434,-43.044739,,,,,,,5
1508446629.955611,-0.002496,0.058307,-0.006259,0.066506,-0.159566,-0.002122,-0.002491,-0.058274,-0.998298,-0.014934,-0.054611,0.024222,-7.818749,-15.080787,-42.961906,,,,,,,5
1508446629.975596,-0.003193,0.058775,-0.006599,-0.008084,0.058149,-0.031321,-0.003187,-0.058741,-0.998268,-0.013964,-0.057149,-0.041222,-7.893045,-15.114071,-42.936619,,,,,,,5
1508446629.995632,0.000305,0.057253,-0.007971,-0.177379,0.278985,-0.093242,0.000305,-0.057222,-0.998361,-0.029571,-0.029448,-0.069052,-7.804454,-15.095839,-42.959221,,,,,,,5
1508446630.015643,0.006992,0.052221,-0.010252,-0.259362,0.342847,-0.119319,0.006983,-0.052197,-0.998612,-0.098032,0.059643,0.048600,-7.476963,-14.915624,-43.080242,,,,,,,5
1508446630.035629,0.013684,0.049213,-0.012526,-0.065573,0.315140,-0.114546,0.013667,-0.049193,-0.998696,-0.052424,0.082381,0.129418,-7.152797,-14.762093,-43.188034,,,,,,,5
1508446630.055663,0.019173,0.050331,-0.015077,0.115504,0.240616,-0.133338,0.019147,-0.050309,-0.998550,-0.018247,0.069474,0.139023,-6.933839,-14.768070,-43.221687,,,,,,,5
1508446630.075676,0.024464,0.053570,-0.017721,0.184659,0.286321,-0.115696,0.024426,-0.053545,-0.998267,-0.007382,0.057802,0.115164,-6.807136,-14.819672,-43.224163,,,,,,,5
1508446630.095685,0.031140,0.057840,-0.019162,0.202564,0.387524,-0.032422,0.031083,-0.057808,-0.997844,0.002959,-0.039711,-0.051076,-6.327462,-15.129053,-43.189854,,,,,,,5
1508446630.115695,0.039624,0.060771,-0.019138,0.099179,0.417504,0.018920,0.039540,-0.060733,-0.997371,0.020640,-0.049405,-0.055791,-6.058086,-15.250287,-43.185841,,,,,,,5
1508446630.135699,0.047557,0.061710,-0.018997,0.019441,0.216740,0.009592,0.047449,-0.061671,-0.996968,0.064826,-0.008825,-0.037959,-5.664156,-15.326117,-43.212452,,,,,,,5
1508446630.155718,0.049107,0.062731,-0.019326,0.082447,-0.002083,-0.034669,0.048991,-0.062690,-0.996830,0.084371,0.029014,-0.018078,-5.468195,-15.366280,-43.223427,,,,,,,5
1508446630.175702,0.047038,0.065458,-0.020723,0.173102,-0.172236,-0.072380,0.046920,-0.065411,-0.996755,0.061830,0.023740,-0.024058,-5.472213,-15.408779,-43.207787,,,,,,,5
1508446630.195727,0.042401,0.069464,-0.022133,0.214628,-0.253978,-0.049740,0.042286,-0.069409,-0.996692,0.004574,-0.015415,-0.010724,-5.673804,-15.647055,-43.096008,,,,,,,5
1508446630.215749,0.037858,0.073491,-0.022889,0.186867,-0.209233,-0.017993,0.037747,-0.073425,-0.996586,-0.033261,-0.025162,0.001408,-5.823204,-15.788424,-43.024460,,,,,,,5
1508446630.235760,0.035093,0.076527,-0.023189,0.129291,-0.081691,-0.008789,0.034983,-0.076453,-0.996459,-0.046946,-0.014795,0.020065,-5.987362,-15.945280,-42.944008,,,,,,,5
1508446630.255767,0.033938,0.078818,-0.023443,0.073849,0.105268,-0.018687,0.033826,-0.078736,-0.996321,-0.038556,-0.000915,0.024886,-6.023775,-16.072659,-42.891399,,,,,,,5
1508446630.275782,0.038436,0.079745,-0.023923,0.040761,0.275251,-0.020961,0.038305,-0.079661,-0.996086,-0.023229,0.008997,-0.016198,-6.077410,-16.104111,-42.872032,,,,,,,5
1508446630.295792,0.044013,0.080739,-0.024389,0.058871,0.255058,-0.020827,0.043855,-0.080652,-0.995777,-0.011018,0.018564,-0.035839,-5.751578,-16.167782,-42.893013,,,,,,,5
1508446630.315803,0.048247,0.082230,-0.024934,0.085540,0.184060,-0.024810,0.048065,-0.082137,-0.995461,-0.003784,0.008376,-0.030982,-5.488659,-16.241652,-42.899551,,,,,,,5
1508446630.335800,0.051463,0.083878,-0.025719,0.079196,0.147892,-0.039796,0.051259,-0.083780,-0.995165,0.017940,-0.035361,-0.007276,-5.371297,-16.299774,-42.892365,,,,,,,5
1508446630.355823,0.054503,0.085202,-0.026559,0.058956,0.145800,-0.033576,0.054279,-0.085099,-0.994893,0.027447,-0.052627,-0.002040,-5.230241,-16.370583,-42.882828,,,,,,,5
1508446630.375835,0.056753,0.086485,-0.027333,0.077112,0.057595,-0.039882,0.056511,-0.086377,-0.994658,0.045860,-0.045978,-0.002778,-5.127710,-16.411812,-42.879452,,,,,,,5
1508446630.395820,0.057260,0.087509,-0.028228,0.086745,-0.065618,-0.034572,0.057010,-0.087397,-0.994541,0.024945,0.016261,0.015506,-5.050143,-16.495031,-42.856720,,,,,,,5
1508446630.415856,0.055905,0.089618,-0.029141,0.118704,-0.061422,-0.044952,0.055652,-0.089498,-0.994431,0.019375,0.036168,0.013062,-5.050685,-16.554550,-42.833698,,,,,,,5
1508446630.435867,0.054918,0.092035,-0.030469,0.125124,-0.054059,-0.065124,0.054658,-0.091906,-0.994267,-0.028657,0.028902,-0.007183,-5.093447,-16.690233,-42.775940,,,,,,,5
1508446630.455877,0.053999,0.094501,-0.031930,0.132567,-0.046615,-0.061863,0.053732,-0.094360,-0.994087,-0.043631,-0.005188,0.013588,-5.117790,-16.804081,-42.728439,,,,,,,5
1508446630.475887,0.054093,0.097158,-0.032991,0.134613,0.024657,-0.034108,0.053812,-0.097005,-0.993828,-0.032953,-0.005992,0.008812,-5.123971,-16.864414,-42.703918,,,,,,,5
1508446630.495899,0.053452,0.099479,-0.033432,0.127153,-0.015433,-0.011729,0.053162,-0.099315,-0.993635,-0.012940,0.016353,-0.006731,-5.133543,-16.971382,-42.660370,,,,,,,5
1508446630.515884,0.053292,0.101639,-0.033696,0.100518,0.005838,-0.008738,0.052992,-0.101464,-0.993427,0.011736,0.038644,0.006717,-5.137743,-17.104975,-42.606476,,,,,,,5
1508446630.535919,0.053847,0.103611,-0.034192,0.102665,0.034457,-0.026800,0.053533,-0.103426,-0.993196,0.019557,0.047670,-0.000915,-5.132762,-17.170321,-42.580788,,,,,,,5
1508446630.555926,0.054647,0.105908,-0.034791,0.120745,0.034489,-0.014938,0.054314,-0.105710,-0.992913,-0.027657,0.018948,-0.010002,-5.097806,-17.259996,-42.548714,,,,,,,5
1508446630.575924,0.053719,0.108374,-0.034484,0.120683,-0.017393,0.035065,0.053378,-0.108162,-0.992699,-0.022433,0.000756,-0.003395,-5.062315,-17.389626,-42.500145,,,,,,,5
1508446630.595929,0.052640,0.110843,-0.033518,0.123859,-0.073605,0.061668,0.052292,-0.110616,-0.992487,0.007308,-0.025401,-0.002905,-5.124749,-17.463091,-42.462521,,,,,,,5
1508446630.615954,0.051875,0.114923,-0.032574,0.093010,-0.079997,0.050761,0.051510,-0.114670,-0.992067,0.020084,-0.044281,-0.000792,-5.236821,-17.602915,-42.391052,,,,,,,5
1508446630.635973,0.049072,0.116904,-0.031071,0.105730,-0.147810,0.102987,0.048717,-0.116638,-0.991979,-0.027492,0.007934,0.031392,-5.282461,-17.734474,-42.330513,,,,,,,5
1508446630.655957,0.046978,0.118300,-0.029663,0.034426,-0.039591,0.052437,0.046633,-0.118024,-0.991915,-0.030672,-0.000781,0.024569,-5.433732,-17.804295,-42.282028,,,,,,,5
1508446630.675982,0.042767,0.119934,-0.028242,0.127086,-0.152194,0.069089,0.042446,-0.119647,-0.991909,-0.070095,0.048861,0.042202,-5.629406,-17.854095,-42.235405,,,,,,,5
1508446630.696005,0.042897,0.120406,-0.027979,-0.024147,0.096300,0.020115,0.042573,-0.120116,-0.991847,-0.043626,-0.026643,0.024897,-5.667727,-17.878986,-42.219746,,,,,,,5
1508446630.716015,0.044794,0.119458,-0.026800,-0.039144,0.154854,0.054107,0.044460,-0.119174,-0.991877,0.008275,0.030871,0.033503,-5.649693,-17.865780,-42.227753,,,,,,,5
1508446630.736027,0.049065,0.117810,-0.026217,-0.107246,0.245015,0.004635,0.048705,-0.117538,-0.991873,-0.012069,0.040893,0.011511,-5.476915,-17.797644,-42.279259,,,,,,,5
1508446630.756027,0.053655,0.114448,-0.026012,-0.076390,0.248215,0.013410,0.053279,-0.114198,-0.992028,-0.004756,0.024477,-0.003242,-5.336274,-17.670048,-42.350704,,,,,,,5
1508446630.776048,0.058217,0.114352,-0.025151,0.026828,0.220692,0.056831,0.057804,-0.114103,-0.991786,0.012463,0.011701,-0.004567,-5.134859,-17.616747,-42.397778,,,,,,,5
1508446630.796059,0.061101,0.115400,-0.023937,0.056688,0.104906,0.063379,0.060657,-0.115144,-0.991495,0.075696,0.012376,0.020487,-4.958903,-17.646118,-42.406513,,,,,,,5
1508446630.816055,0.062122,0.116806,-0.022937,0.071667,0.033647,0.042153,0.061659,-0.116541,-0.991270,0.056902,0.014612,-0.015627,-4.916516,-17.694033,-42.391476,,,,,,,5
1508446630.836080,0.062165,0.117689,-0.022330,0.016342,0.005999,0.025705,0.061696,-0.117417,-0.991164,-0.013142,-0.016601,-0.025605,-4.915718,-17.730913,-42.376156,,,,,,,5
1508446630.856091,0.063079,0.117187,-0.021942,-0.042245,0.079311,0.019953,0.062605,-0.116919,-0.991166,-0.040694,-0.040369,0.020585,-4.919890,-17.740702,-42.371574,,,,,,,5
1508446630.876101,0.065277,0.116844,-0.021394,0.002440,0.119684,0.027805,0.064786,-0.116578,-0.991066,-0.013486,-0.020568,0.026787,-4.844902,-17.701662,-42.396538,,,,,,,5
1508446630.896112,0.067094,0.117372,-0.021090,0.035510,0.074967,0.004620,0.066582,-0.117103,-0.990885,0.009315,-0.005257,0.027003,-4.777652,-17.700384,-42.404701,,,,,,,5
1508446630.916122,0.067985,0.118743,-0.021678,0.004738,0.065227,-0.051008,0.067454,-0.118464,-0.990665,-0.008540,-0.021535,-0.005292,-4.712116,-17.725620,-42.401493,,,,,,,5
1508446630.936134,0.069872,0.117894,-0.023151,-0.060168,0.100197,-0.085589,0.069330,-0.117621,-0.990635,-0.020121,-0.031198,0.008183,-4.638752,-17.773954,-42.389351,,,,,,,5
1508446630.956128,0.072372,0.116049,-0.024617,-0.099605,0.127894,-0.069922,0.071823,-0.115789,-0.990674,-0.019302,-0.030695,0.013867,-4.552926,-17.742403,-42.411865,,,,,,,5
1508446630.976153,0.075517,0.114407,-0.025501,-0.048553,0.118429,-0.035436,0.074953,-0.114157,-0.990631,0.026061,0.016410,-0.008133,-4.337687,-17.636063,-42.478725,,,,,,,5
1508446630.996165,0.076733,0.114404,-0.026289,0.021794,0.014240,-0.047711,0.076156,-0.114155,-0.990540,0.044190,0.024570,-0.004593,-4.267952,-17.622730,-42.491322,,,,,,,5
1508446631.016172,0.075634,0.114335,-0.027498,-0.020683,-0.111929,-0.063973,0.075069,-0.114086,-0.990631,0.066808,0.024883,-0.016343,-4.249752,-17.640352,-42.485828,,,,,,,5
1508446631.036188,0.074852,0.111779,-0.028889,-0.148436,-0.157527,-0.061868,0.074316,-0.111546,-0.990977,0.010905,-0.033336,-0.041753,-4.263348,-17.571398,-42.513035,,,,,,,5
1508446631.056197,0.072450,0.107349,-0.029450,-0.249670,-0.110610,-0.027532,0.071970,-0.107143,-0.991635,-0.036127,-0.056767,-0.059070,-4.291416,-17.541153,-42.522701,,,,,,,5
1508446631.076208,0.067929,0.103375,-0.028709,-0.297642,-0.195364,0.032699,0.067514,-0.103191,-0.992368,-0.010187,-0.028096,-0.024966,-4.496442,-17.311356,-42.595623,,,,,,,5
1508446631.096220,0.062306,0.096806,-0.027282,-0.356172,-0.318502,0.050223,0.061974,-0.096655,-0.993387,0.019004,0.004446,0.002725,-4.756541,-16.974493,-42.702816,,,,,,,5
1508446631.116226,0.055847,0.088196,-0.026166,-0.423184,-0.384401,0.029390,0.055601,-0.088081,-0.994560,0.037050,0.028175,0.065437,-4.941611,-16.703754,-42.788471,,,,,,,5
1508446631.136240,0.049301,0.079886,-0.025051,-0.392397,-0.255821,0.044648,0.049124,-0.079801,-0.995600,0.045084,0.038389,0.117884,-5.270507,-16.337742,-42.890423,,,,,,,5
1508446631.156252,0.048249,0.074251,-0.023395,-0.213760,0.103275,0.079401,0.048097,-0.074183,-0.996084,0.067412,0.080149,0.073217,-5.476246,-15.957029,-43.007816,,,,,,,5
1508446631.176262,0.053840,0.070773,-0.021597,-0.200015,0.323145,0.072227,0.053680,-0.070714,-0.996051,0.073212,0.011189,-0.129895,-5.303405,-15.791683,-43.090424,,,,,,,5
1508446631.196272,0.056911,0.064637,-0.020334,-0.321077,-0.220794,0.044197,0.056761,-0.064592,-0.996296,0.096849,0.054628,-0.022884,-5.052109,-15.613649,-43.185394,,,,,,,5
1508446631.216284,0.046699,0.060508,-0.020579,-0.080048,-0.617567,-0.069106,0.046596,-0.060471,-0.997082,0.013783,0.212403,0.112926,-5.424358,-15.314551,-43.247303,,,,,,,5
1508446631.236293,0.035651,0.064816,-0.022563,0.387309,-0.444692,-0.080024,0.035569,-0.064770,-0.997266,-0.269501,-0.004657,0.031232,-5.917470,-15.412931,-43.147575,,,,,,,5
1508446631.256305,0.032880,0.074439,-0.022682,0.475137,0.068946,0.085060,0.032783,-0.074371,-0.996692,-0.287468,-0.119675,-0.009656,-6.119278,-15.705719,-43.013638,,,,,,,5
1508446631.276313,0.041227,0.080580,-0.019393,0.155276,0.604869,0.181847,0.041082,-0.080492,-0.995908,0.126490,-0.209135,-0.046420,-5.932227,-16.120741,-42.886116,,,,,,,5
1508446631.296325,0.051044,0.078225,-0.017375,-0.263836,0.315629,0.036557,0.050866,-0.078145,-0.995644,0.335227,-0.075694,-0.021782,-5.579246,-16.131933,-42.929256,,,,,,,5
1508446631.316327,0.047235,0.071630,-0.018239,-0.311064,-0.515630,-0.117784,0.047096,-0.071569,-0.996323,0.383217,-0.003397,0.000596,-5.406223,-15.892088,-43.040707,,,,,,,5
1508446631.336349,0.029140,0.068139,-0.021638,-0.064697,-1.094971,-0.186462,0.029068,-0.068086,-0.997256,0.171493,0.098406,0.069338,-6.079865,-15.642429,-43.042278,,,,,,,5
1508446631.356357,0.006284,0.070207,-0.024284,0.194941,-1.102217,-0.092756,0.006268,-0.070150,-0.997517,-0.070447,0.084127,0.099140,-6.780303,-15.663124,-42.929970,,,,,,,5
1508446631.376368,-0.010371,0.075463,-0.025275,0.281918,-0.646313,-0.033132,-0.010341,-0.075391,-0.997100,-0.164570,0.065809,0.077468,-7.649561,-15.852761,-42.713726,,,,,,,5
1508446631.396379,-0.016511,0.080243,-0.025324,0.198526,-0.116013,0.010235,-0.016457,-0.080157,-0.996646,-0.282737,-0.096067,-0.044430,-8.181825,-16.137163,-42.508095,,,,,,,5
1508446631.416366,-0.013929,0.081938,-0.024347,0.005530,0.248658,0.064284,-0.013882,-0.081846,-0.996548,-0.147022,-0.190065,-0.129123,-8.207314,-16.178944,-42.487293,,,,,,,5
1508446631.436400,-0.008648,0.079133,-0.023184,-0.220170,0.240235,0.051767,-0.008621,-0.079050,-0.996833,-0.034897,-0.157904,-0.142907,-8.000292,-16.203005,-42.517601,,,,,,,5
1508446631.456411,-0.006270,0.073292,-0.022569,-0.311584,0.043641,0.019987,-0.006253,-0.073226,-0.997296,-0.029559,-0.034104,-0.059589,-7.815186,-15.928959,-42.655357,,,,,,,5
1508446631.476425,-0.007061,0.067874,-0.022583,-0.231629,-0.063787,-0.006053,-0.007045,-0.067822,-0.997673,-0.078420,0.059582,0.056861,-7.816773,-15.735065,-42.726971,,,,,,,5
1508446631.496432,-0.007158,0.064713,-0.022490,-0.117810,0.057355,0.021596,-0.007143,-0.064668,-0.997881,-0.106916,0.107133,0.123583,-7.859087,-15.551016,-42.786552,,,,,,,5
1508446631.516444,-0.003317,0.063493,-0.021370,-0.029638,0.275273,0.074662,-0.003310,-0.063450,-0.997980,-0.101334,0.107853,0.129114,-7.847338,-15.493930,-42.809410,,,,,,,5
1508446631.536454,0.004061,0.064028,-0.019698,0.058646,0.421861,0.084019,0.004053,-0.063984,-0.997943,-0.014993,0.025654,0.032733,-7.485965,-15.434024,-42.895683,,,,,,,5
1508446631.556464,0.012991,0.065826,-0.018162,0.100174,0.455794,0.072675,0.012963,-0.065779,-0.997750,-0.002571,0.012678,0.001702,-7.222768,-15.472139,-42.927063,,,,,,,5
1508446631.576476,0.021431,0.067630,-0.016898,0.074672,0.402642,0.058583,0.021380,-0.067578,-0.997485,0.021711,-0.027652,-0.044706,-6.774147,-15.562521,-42.967514,,,,,,,5
1508446631.596486,0.028550,0.068470,-0.016016,0.021510,0.334597,0.034668,0.028479,-0.068417,-0.997250,0.031458,-0.042210,-0.059070,-6.466839,-15.602380,-43.000397,,,,,,,5
1508446631.616497,0.034272,0.068085,-0.015727,-0.042272,0.250586,0.000007,0.034186,-0.068032,-0.997097,0.025888,-0.037925,-0.062671,-6.267957,-15.602690,-43.029724,,,,,,,5
1508446631.636492,0.038087,0.066777,-0.015839,-0.073089,0.168765,-0.010957,0.037993,-0.066727,-0.997048,0.013689,-0.025054,-0.007972,-6.025555,-15.547455,-43.084309,,,,,,,5
1508446631.656518,0.041826,0.065216,-0.016013,-0.078432,0.198520,-0.008849,0.041725,-0.065169,-0.997002,0.021004,-0.007798,0.039848,-5.867476,-15.483124,-43.129269,,,,,,,5
1508446631.676504,0.045682,0.063695,-0.015584,-0.071052,0.181684,0.038048,0.045573,-0.063652,-0.996931,0.020726,0.001198,0.046736,-5.738397,-15.431582,-43.165096,,,,,,,5
1508446631.696531,0.048065,0.063018,-0.014340,-0.008231,0.073399,0.068297,0.047951,-0.062976,-0.996862,0.035835,0.013492,0.039251,-5.584723,-15.363176,-43.209629,,,,,,,5
1508446631.716550,0.047093,0.063987,-0.013062,0.068538,-0.112578,0.060272,0.046979,-0.063944,-0.996847,0.048511,0.011621,0.025656,-5.583767,-15.367514,-43.208210,,,,,,,5
1508446631.736554,0.043772,0.065254,-0.012254,0.041996,-0.167903,0.032328,0.043665,-0.065208,-0.996916,0.053000,-0.007577,-0.020555,-5.668815,-15.405937,-43.183445,,,,,,,5
1508446631.756548,0.042198,0.066572,-0.011800,-0.008071,-0.093529,0.026647,0.042092,-0.066523,-0.996897,-0.003563,-0.018759,-0.027807,-5.839588,-15.494932,-43.128815,,,,,,,5
1508446631.776582,0.040796,0.066782,-0.011447,0.026018,-0.063864,0.008850,0.040694,-0.066732,-0.996941,-0.016570,-0.010981,-0.013725,-5.897125,-15.490760,-43.122482,,,,,,,5
1508446631.796582,0.039757,0.067427,-0.011695,0.031382,-0.036354,-0.021962,0.039656,-0.067376,-0.996939,-0.024855,-0.003288,0.021720,-5.952968,-15.513126,-43.106766,,,,,,,5
1508446631.816607,0.037756,0.068245,-0.012028,0.029224,-0.001279,-0.015564,0.037659,-0.068192,-0.996961,-0.034424,0.004212,0.029951,-6.052391,-15.559039,-43.076363,,,,,,,5
1508446631.836597,0.037681,0.068915,-0.012151,0.030262,-0.006531,0.001476,0.037583,-0.068861,-0.996918,-0.013977,0.004377,0.008469,-6.051260,-15.581244,-43.068497,,,,,,,5
1508446631.856624,0.037345,0.068892,-0.012014,-0.022985,-0.016036,0.009547,0.037248,-0.068838,-0.996932,-0.002610,0.005758,-0.002152,-6.060548,-15.600857,-43.060093,,,,,,,5
1508446631.876636,0.037483,0.067588,-0.011808,-0.050672,-0.011771,0.009322,0.037389,-0.067537,-0.997016,0.004436,0.019990,-0.005074,-6.062335,-15.547215,-43.079235,,,,,,,5
1508446631.896647,0.037106,0.066729,-0.011358,-0.035796,-0.021268,0.029668,0.037015,-0.066679,-0.997088,-0.016172,0.022673,-0.003233,-6.074394,-15.513933,-43.089535,,,,,,,5
1508446631.916656,0.036295,0.066400,-0.010502,-0.008126,-0.050972,0.045845,0.036207,-0.066351,-0.997139,-0.014204,0.020667,-0.000847,-6.105817,-15.482533,-43.096386,,,,,,,5
1508446631.936669,0.035035,0.065738,-0.009853,-0.001683,-0.081863,0.022450,0.034952,-0.065691,-0.997228,0.015173,0.001726,-0.005702,-6.175246,-15.442807,-43.100746,,,,,,,5
1508446631.956678,0.033848,0.065982,-0.009947,-0.017587,-0.071372,-0.018133,0.033768,-0.065934,-0.997252,0.007355,-0.007858,0.000762,-6.230749,-15.456145,-43.087975,,,,,,,5
1508446631.976666,0.032770,0.066030,-0.010308,-0.041044,-0.023534,-0.011902,0.032693,-0.065982,-0.997285,-0.004876,-0.012189,0.008149,-6.230749,-15.456145,-43.087975,,,,,,,5
1508446631.996701,0.030310,0.065665,-0.009721,-0.052831,-0.009279,0.040325,0.030240,-0.065618,-0.997386,-0.018719,-0.002344,0.008144,-6.343310,-15.469585,-43.066723,,,,,,,5
1508446632.016710,0.029175,0.063666,-0.008549,-0.017711,-0.026255,0.052314,0.029111,-0.063623,-0.997549,-0.003721,0.018045,-0.006082,-6.436162,-15.395189,-43.079601,,,,,,,5
1508446632.036693,0.027720,0.063004,-0.008096,0.038838,-0.089140,0.001626,0.027661,-0.062963,-0.997632,-0.000897,0.021276,-0.010119,-6.475004,-15.340414,-43.093319,,,,,,,5
1508446632.056720,0.024034,0.062770,-0.008645,0.092168,-0.112718,-0.047994,0.023984,-0.062728,-0.997742,-0.015073,0.006545,0.001908,-6.633308,-15.294679,-43.085499,,,,,,,5
1508446632.076742,0.020451,0.065285,-0.010016,0.103932,-0.089481,-0.083016,0.020406,-0.065238,-0.997661,-0.022237,-0.008614,0.001415,-6.720028,-15.353002,-43.051308,,,,,,,5
1508446632.096727,0.018540,0.067595,-0.011894,0.093278,-0.014113,-0.100083,0.018497,-0.067543,-0.997545,-0.029468,-0.008705,-0.000624,-6.883973,-15.489356,-42.976494,,,,,,,5
1508446632.116742,0.018120,0.069592,-0.013887,0.077271,0.062375,-0.101221,0.018075,-0.069536,-0.997416,-0.041391,-0.010008,-0.001272,-6.894272,-15.617603,-42.928406,,,,,,,5
1508446632.136774,0.019742,0.070654,-0.015797,0.035718,0.079435,-0.089839,0.019692,-0.070596,-0.997311,-0.034889,-0.020148,0.009869,-6.827244,-15.672970,-42.918938,,,,,,,5
1508446632.156785,0.020851,0.071540,-0.017497,-0.028181,0.099663,-0.086092,0.020796,-0.071479,-0.997225,-0.023177,-0.025887,0.015704,-6.765285,-15.751819,-42.899876,,,,,,,5
1508446632.176796,0.023096,0.070505,-0.019071,-0.059083,0.106098,-0.073566,0.023037,-0.070446,-0.997250,0.033894,-0.033329,0.015469,-6.622730,-15.726388,-42.931438,,,,,,,5
1508446632.196808,0.027346,0.070043,-0.020384,-0.066560,0.062652,-0.045978,0.027276,-0.069986,-0.997175,0.066672,-0.023337,0.003385,-6.594159,-15.716131,-42.939590,,,,,,,5
1508446632.216817,0.027889,0.068741,-0.020833,-0.057008,0.001155,-0.010809,0.027819,-0.068686,-0.997250,0.074247,0.000098,-0.002841,-6.372050,-15.679077,-42.986649,,,,,,,5
1508446632.236829,0.026806,0.067980,-0.020738,-0.021862,-0.089090,0.009643,0.026741,-0.067928,-0.997332,0.055046,0.023922,-0.007887,-6.392733,-15.625708,-43.003006,,,,,,,5
1508446632.256820,0.023970,0.068166,-0.020561,0.029293,-0.166684,0.004683,0.023912,-0.068113,-0.997391,0.013899,0.026609,-0.008621,-6.467373,-15.618351,-42.994514,,,,,,,5
1508446632.276848,0.020289,0.069198,-0.020646,0.060204,-0.185870,-0.008918,0.020239,-0.069143,-0.997401,-0.002539,0.027807,-0.007878,-6.615281,-15.646730,-42.961681,,,,,,,5
1508446632.296861,0.017043,0.070279,-0.021028,0.048497,-0.144485,-0.023890,0.017000,-0.070221,-0.997387,-0.032381,0.008805,-0.000935,-6.800003,-15.710029,-42.909710,,,,,,,5
1508446632.316753,0.015042,0.070947,-0.021600,0.023981,-0.074373,-0.028298,0.015004,-0.070888,-0.997371,-0.033391,-0.001653,0.008571,-6.876070,-15.740301,-42.886490,,,,,,,5
1508446632.336785,0.014595,0.071078,-0.022113,-0.003753,0.008521,-0.023140,0.014558,-0.071018,-0.997369,-0.034486,-0.001492,0.014047,-6.923224,-15.761931,-42.870956,,,,,,,5
1508446632.356798,0.016012,0.070730,-0.022519,-0.021916,0.107354,-0.015762,0.015971,-0.070671,-0.997372,-0.035991,0.003425,0.024487,-6.878833,-15.755924,-42.880306,,,,,,,5
1508446632.376782,0.019179,0.070243,-0.022811,-0.023012,0.180645,-0.018910,0.019131,-0.070185,-0.997351,-0.037289,0.016291,0.020559,-6.792154,-15.742066,-42.899208,,,,,,,5
1508446632.396817,0.023199,0.070061,-0.023221,0.002535,0.205055,-0.021875,0.023140,-0.070004,-0.997278,-0.038170,0.018155,0.016794,-6.627991,-15.727549,-42.930202,,,,,,,5
1508446632.416830,0.027314,0.070486,-0.023609,0.032342,0.200806,-0.017373,0.027242,-0.070427,-0.997145,-0.012838,0.008934,0.002623,-6.400061,-15.742011,-42.959476,,,,,,,5
1508446632.436822,0.031078,0.071266,-0.024006,0.038746,0.176362,-0.019468,0.030994,-0.071205,-0.996980,0.004361,-0.006355,-0.002944,-6.228572,-15.776913,-42.971878,,,,,,,5
1508446632.456850,0.034161,0.071813,-0.024476,0.018543,0.138113,-0.023923,0.034067,-0.071751,-0.996841,0.012808,-0.018611,-0.010407,-6.116050,-15.802011,-42.978817,,,,,,,5
1508446632.476862,0.036240,0.071940,-0.024925,0.000465,0.081830,-0.020921,0.036138,-0.071878,-0.996759,0.019205,-0.020194,-0.010581,-5.975181,-15.820833,-42.991703,,,,,,,5
1508446632.496871,0.038526,0.072593,-0.025390,0.000486,0.030857,-0.016700,0.038415,-0.072529,-0.996626,0.023414,-0.012859,-0.002000,-5.926489,-15.822028,-42.998005,,,,,,,5
1508446632.516883,0.038634,0.072648,-0.025609,0.005812,-0.008418,-0.007103,0.038522,-0.072584,-0.996618,0.018683,-0.009875,0.002157,-5.844121,-15.854389,-42.997360,,,,,,,5
1508446632.536880,0.038120,0.072788,-0.025533,0.006866,-0.038111,0.007789,0.038010,-0.072724,-0.996628,0.010162,-0.002121,0.009369,-5.859072,-15.861120,-42.992844,,,,,,,5
1508446632.556904,0.037032,0.072750,-0.025610,0.002653,-0.072163,-0.009307,0.036925,-0.072686,-0.996671,0.000031,0.005334,0.010679,-5.891500,-15.864366,-42.987213,,,,,,,5
1508446632.576909,0.035477,0.072966,-0.025840,0.017566,-0.081735,-0.010256,0.035375,-0.072901,-0.996712,-0.000814,0.006144,0.009102,-5.944736,-15.864988,-42.979652,,,,,,,5
1508446632.596908,0.033710,0.073171,-0.025976,0.032451,-0.077456,0.000518,0.033613,-0.073106,-0.996758,-0.001738,0.006822,0.006050,-6.030907,-15.889615,-42.958542,,,,,,,5
1508446632.616936,0.032614,0.073829,-0.025859,0.028166,-0.041319,0.004769,0.032520,-0.073762,-0.996746,-0.005435,0.007661,0.003917,-6.080327,-15.896675,-42.948963,,,,,,,5
1508446632.636946,0.032226,0.074147,-0.025903,0.007938,-0.007352,-0.006020,0.032132,-0.074079,-0.996735,-0.010068,0.009107,0.002945,-6.108176,-15.914356,-42.938465,,,,,,,5
1508446632.656959,0.030591,0.072270,-0.025948,-0.006955,0.022630,-0.009191,0.030507,-0.072207,-0.996923,-0.014622,0.016360,-0.000239,-6.156429,-15.883824,-42.942879,,,,,,,5
1508446632.676969,0.030734,0.071154,-0.026038,0.001546,0.041754,-0.006977,0.030651,-0.071094,-0.996999,-0.010174,0.019839,0.004262,-6.173060,-15.841185,-42.956238,,,,,,,5
1508446632.696978,0.031425,0.069955,-0.026258,0.015385,0.051296,-0.010049,0.031343,-0.069898,-0.997062,-0.004304,0.012708,0.004676,-6.160789,-15.765559,-42.985813,,,,,,,5
1508446632.716991,0.032396,0.069954,-0.026304,0.019617,0.058775,0.002768,0.032312,-0.069897,-0.997031,-0.003122,0.001858,0.004233,-6.109682,-15.745718,-43.000378,,,,,,,5
1508446632.736981,0.033317,0.070456,-0.026132,0.013224,0.041807,0.010156,0.033228,-0.070398,-0.996965,-0.001124,-0.002707,0.001757,-6.102621,-15.746959,-43.000927,,,,,,,5
1508446632.757010,0.033829,0.071345,-0.025870,0.011102,0.008899,0.016502,0.033736,-0.071285,-0.996885,0.000993,-0.011067,0.001280,-6.052001,-15.780381,-42.995827,,,,,,,5
1508446632.777023,0.034162,0.071985,-0.025753,0.006875,-0.000711,0.001553,0.034067,-0.071923,-0.996828,0.007468,-0.011314,0.003954,-6.047276,-15.803206,-42.988106,,,,,,,5
1508446632.797032,0.034542,0.072552,-0.025811,0.001559,0.001403,-0.002748,0.034444,-0.072488,-0.996774,0.009394,-0.012686,0.004251,-6.035090,-15.831270,-42.979492,,,,,,,5
1508446632.817043,0.034683,0.073068,-0.025860,0.006897,0.019618,-0.002611,0.034583,-0.073003,-0.996732,-0.002738,-0.010310,0.007734,-6.014907,-15.855886,-42.973248,,,,,,,5
1508446632.837055,0.035094,0.073637,-0.025811,0.012202,0.033451,0.004896,0.034992,-0.073571,-0.996676,-0.008548,-0.006294,0.007311,-6.001714,-15.898267,-42.959431,,,,,,,5
1508446632.857064,0.035438,0.074144,-0.025695,0.019658,0.032381,0.003893,0.035333,-0.074076,-0.996626,-0.008524,-0.003393,0.006072,-5.981264,-15.907228,-42.958969,,,,,,,5
1508446632.877060,0.035932,0.074658,-0.025732,0.017544,0.031290,-0.004644,0.035825,-0.074589,-0.996571,-0.004330,-0.003048,0.002659,-5.968080,-15.930396,-42.952213,,,,,,,5
1508446632.897069,0.036266,0.075244,-0.025959,0.013305,0.034437,-0.016388,0.036155,-0.075173,-0.996515,-0.005195,-0.004432,0.000330,-5.944149,-15.960155,-42.944485,,,,,,,5
1508446632.917099,0.036809,0.075596,-0.026426,0.009068,0.028028,-0.027076,0.036695,-0.075524,-0.996469,-0.003416,-0.004539,0.003701,-5.926659,-15.976058,-42.940990,,,,,,,5
1508446632.937081,0.037338,0.075816,-0.027062,0.008015,0.028006,-0.033473,0.037222,-0.075743,-0.996432,-0.002218,-0.001802,0.003802,-5.906373,-15.991835,-42.937912,,,,,,,5
1508446632.957119,0.037683,0.076236,-0.027722,0.015491,0.022849,-0.031206,0.037564,-0.076162,-0.996388,-0.005445,-0.004252,0.006397,-5.860036,-16.014242,-42.935909,,,,,,,5
1508446632.977123,0.038176,0.076515,-0.028264,0.012283,0.020756,-0.022716,0.038055,-0.076440,-0.996348,-0.004364,-0.005103,0.005884,-5.846356,-16.034744,-42.930122,,,,,,,5
1508446632.997139,0.038568,0.076987,-0.028660,0.006951,0.019715,-0.017437,0.038444,-0.076911,-0.996297,-0.001640,-0.006997,0.008046,-5.822961,-16.060255,-42.923767,,,,,,,5
1508446633.017152,0.039082,0.077173,-0.028994,0.003758,0.014410,-0.016402,0.038956,-0.077096,-0.996262,0.003509,-0.001823,0.004609,-5.796185,-16.070385,-42.923599,,,,,,,5
1508446633.037162,0.039109,0.077230,-0.029326,0.005899,-0.008963,-0.016402,0.038983,-0.077153,-0.996257,0.005924,-0.000728,0.002421,-5.779917,-16.077511,-42.923122,,,,,,,5
1508446633.057172,0.039010,0.076932,-0.029660,0.013353,-0.028072,-0.012096,0.038885,-0.076856,-0.996284,0.004038,0.006040,0.001365,-5.777060,-16.073532,-42.924999,,,,,,,5
1508446633.077184,0.038200,0.077065,-0.029636,0.018639,-0.029063,0.009241,0.038078,-0.076988,-0.996305,-0.004966,0.002525,-0.000811,-5.799719,-16.075823,-42.921085,,,,,,,5
1508446633.097180,0.037192,0.076813,-0.029280,-0.002669,-0.036456,0.018643,0.037074,-0.076737,-0.996362,-0.002574,0.006074,-0.002387,-5.814960,-16.075573,-42.919117,,,,,,,5
1508446633.117203,0.036733,0.076238,-0.029005,-0.020762,-0.019482,0.008924,0.036619,-0.076164,-0.996423,0.004016,0.009239,0.009454,-5.880059,-16.057304,-42.917084,,,,,,,5
1508446633.137215,0.037148,0.075462,-0.029003,-0.021802,0.023101,-0.003730,0.037034,-0.075391,-0.996466,0.006926,0.009885,0.015616,-5.885442,-16.035595,-42.924461,,,,,,,5
1508446633.157208,0.037559,0.073744,-0.029081,-0.015426,0.044340,-0.004726,0.037448,-0.073677,-0.996579,-0.005328,0.014732,0.006787,-5.850863,-15.952515,-42.960133,,,,,,,5
1508446633.177234,0.038158,0.073173,-0.029068,-0.000528,0.029490,0.003904,0.038046,-0.073108,-0.996598,-0.004843,0.013721,0.002915,-5.829518,-15.924763,-42.973328,,,,,,,5
1508446633.197248,0.038407,0.072964,-0.028952,0.011184,0.019930,0.006123,0.038295,-0.072899,-0.996604,-0.003993,0.007408,-0.003793,-5.816071,-15.893169,-42.986847,,,,,,,5
1508446633.217257,0.038939,0.073145,-0.028920,-0.005847,0.030544,0.000667,0.038825,-0.073080,-0.996570,0.000390,-0.004084,-0.006268,-5.803026,-15.898895,-42.986488,,,,,,,5
1508446633.237247,0.039800,0.072844,-0.028856,-0.031422,0.058192,0.004735,0.039684,-0.072780,-0.996558,-0.003597,-0.006428,0.000037,-5.781393,-15.899626,-42.989136,,,,,,,5
1508446633.257278,0.040984,0.072420,-0.028632,-0.026099,0.035907,0.012216,0.040865,-0.072357,-0.996541,0.006422,0.002090,-0.000666,-5.721034,-15.878691,-43.004948,,,,,,,5
1508446633.277289,0.041846,0.072218,-0.028404,-0.001594,0.030695,0.014646,0.041724,-0.072155,-0.996520,0.002984,-0.000019,0.017532,-5.689029,-15.860811,-43.015789,,,,,,,5
1508446633.297280,0.042046,0.072672,-0.028060,0.016515,0.002015,0.017968,0.041923,-0.072608,-0.996479,-0.000816,-0.005242,0.008595,-5.665537,-15.870213,-43.015419,,,,,,,5
1508446633.317312,0.041885,0.072916,-0.027699,0.003748,-0.008610,0.015725,0.041762,-0.072852,-0.996468,0.002458,-0.014474,0.001793,-5.675488,-15.883679,-43.009136,,,,,,,5
1508446633.337322,0.041710,0.072778,-0.027449,-0.011151,-0.005434,0.010280,0.041588,-0.072714,-0.996485,-0.000832,-0.024973,-0.002889,-5.684673,-15.881448,-43.008747,,,,,,,5
1508446633.357332,0.041346,0.073628,-0.027269,-0.010077,-0.000141,0.004970,0.041222,-0.073561,-0.996438,-0.008446,-0.026201,0.002405,-5.706454,-15.915659,-42.993214,,,,,,,5
1508446633.377343,0.040794,0.073840,-0.027147,-0.002621,-0.002274,0.003965,0.040672,-0.073773,-0.996445,-0.012779,-0.007114,0.010468,-5.709650,-15.906432,-42.996204,,,,,,,5
1508446633.397338,0.039776,0.074322,-0.027011,0.015480,0.006206,0.001991,0.039656,-0.074253,-0.996451,-0.013105,-0.001125,0.008841,-5.733112,-15.919394,-42.988285,,,,,,,5
1508446633.417364,0.039250,0.075075,-0.026905,0.020791,0.029577,0.003118,0.039129,-0.075004,-0.996415,-0.012670,-0.004570,0.004975,-5.794614,-15.953789,-42.967285,,,,,,,5
1508446633.437376,0.039580,0.075909,-0.026846,0.012280,0.045587,-0.000026,0.039456,-0.075836,-0.996339,-0.005322,-0.004990,0.005571,-5.792665,-15.994803,-42.952297,,,,,,,5
1508446633.457378,0.040752,0.076152,-0.026958,0.000583,0.043443,-0.007578,0.040623,-0.076079,-0.996274,0.006343,-0.001192,0.003354,-5.768614,-16.013733,-42.948479,,,,,,,5
1508446633.477396,0.041528,0.076077,-0.027129,-0.003670,0.034943,-0.008684,0.041396,-0.076004,-0.996248,0.010163,0.002090,0.004335,-5.719904,-16.016075,-42.954117,,,,,,,5
1508446633.497408,0.042391,0.075904,-0.027342,0.006984,0.023249,-0.009669,0.042256,-0.075832,-0.996225,0.006999,0.007945,0.005426,-5.669160,-16.007215,-42.964146,,,,,,,5
1508446633.517418,0.043189,0.075358,-0.027578,0.009120,0.012622,-0.010725,0.043053,-0.075286,-0.996232,0.006172,0.010269,0.003388,-5.643194,-15.997180,-42.971302,,,,,,,5
1508446633.537427,0.043377,0.075633,-0.027777,0.015508,0.005190,-0.008548,0.043240,-0.075561,-0.996203,0.004337,0.011321,0.002383,-5.622386,-15.990355,-42.976570,,,,,,,5
1508446633.557441,0.043420,0.075781,-0.027907,0.016569,-0.007539,-0.003225,0.043282,-0.075708,-0.996190,0.002601,0.005793,-0.002498,-5.610555,-16.004269,-42.972939,,,,,,,5
1508446633.577451,0.043112,0.075942,-0.027901,0.015500,-0.012835,0.001021,0.042975,-0.075869,-0.996191,-0.000570,0.001223,-0.001062,-5.618333,-16.009583,-42.969940,,,,,,,5
1508446633.597451,0.042769,0.076265,-0.027888,0.009110,-0.009645,0.000971,0.042632,-0.076191,-0.996181,-0.003310,-0.002224,0.002788,-5.628084,-16.017637,-42.965664,,,,,,,5
1508446633.617446,0.042585,0.076346,-0.027806,0.000575,0.009549,0.004225,0.042448,-0.076272,-0.996183,-0.003751,0.002068,0.004728,-5.646204,-16.033701,-42.957294,,,,,,,5
1508446633.637481,0.043106,0.076336,-0.027678,-0.001575,0.036124,0.008486,0.042967,-0.076262,-0.996162,-0.005614,0.003172,0.008124,-5.641661,-16.031239,-42.958813,,,,,,,5
1508446633.657475,0.043999,0.076334,-0.027475,-0.000523,0.049945,0.011700,0.043857,-0.076260,-0.996123,-0.005100,0.005566,0.006316,-5.611878,-16.028957,-42.963562,,,,,,,5
1508446633.677505,0.044752,0.076356,-0.027204,0.000538,0.051014,0.013839,0.044606,-0.076282,-0.996088,-0.002568,-0.000531,0.001780,-5.570265,-16.026503,-42.969891,,,,,,,5
1508446633.697514,0.045598,0.076563,-0.026878,-0.000524,0.034029,0.017011,0.045449,-0.076488,-0.996034,0.001518,-0.005864,-0.001479,-5.547300,-16.026159,-42.972992,,,,,,,5
1508446633.717523,0.046252,0.076819,-0.026535,-0.000518,0.019161,0.018065,0.046099,-0.076744,-0.995985,0.004972,-0.006844,-0.000201,-5.514465,-16.042961,-42.970951,,,,,,,5
1508446633.737536,0.046724,0.076952,-0.026249,-0.003699,0.009587,0.013772,0.046568,-0.076876,-0.995953,0.006303,-0.003874,0.003490,-5.503182,-16.040155,-42.973442,,,,,,,5
1508446633.757548,0.047106,0.077034,-0.025944,-0.002635,0.003221,0.015906,0.046949,-0.076958,-0.995928,0.007983,-0.003532,0.005038,-5.478383,-16.049232,-42.973221,,,,,,,5
1508446633.777556,0.047115,0.077067,-0.025704,0.003758,-0.002082,0.009686,0.046958,-0.076991,-0.995925,0.010263,0.000041,0.008514,-5.480699,-16.045763,-42.974220,,,,,,,5
1508446633.797568,0.047256,0.077668,-0.025550,0.019735,-0.008466,0.008748,0.047096,-0.077590,-0.995872,-0.000588,-0.004396,0.004616,-5.474983,-16.059027,-42.969994,,,,,,,5
1508446633.817577,0.046855,0.078541,-0.025373,0.004830,-0.001030,0.006501,0.046693,-0.078460,-0.995823,-0.006013,-0.010132,0.000187,-5.487004,-16.088619,-42.957390,,,,,,,5
1508446633.837570,0.046985,0.078393,-0.025259,-0.012206,0.009591,0.003175,0.046823,-0.078312,-0.995829,-0.011148,-0.013713,0.000956,-5.497315,-16.105038,-42.949921,,,,,,,5
1508446633.857600,0.047024,0.078536,-0.025217,-0.005814,0.019133,-0.001024,0.046862,-0.078455,-0.995816,-0.004565,-0.006125,0.017559,-5.497373,-16.106598,-42.949326,,,,,,,5
1508446633.877611,0.047831,0.078686,-0.025138,0.004816,0.020225,0.008647,0.047665,-0.078605,-0.995766,0.007114,0.000831,0.010796,-5.493179,-16.105377,-42.950321,,,,,,,5
1508446633.897620,0.048615,0.078659,-0.025086,0.015486,-0.001051,0.001265,0.048445,-0.078577,-0.995730,0.016603,0.008173,-0.001294,-5.453862,-16.115345,-42.951595,,,,,,,5
1508446633.917634,0.048699,0.078618,-0.025270,0.014444,-0.039317,-0.008266,0.048529,-0.078537,-0.995729,0.014459,0.008041,-0.008635,-5.412867,-16.105947,-42.960300,,,,,,,5
1508446633.937643,0.047681,0.078350,-0.025524,0.012329,-0.044654,-0.015741,0.047517,-0.078270,-0.995799,-0.006440,0.006661,-0.004933,-5.433010,-16.103441,-42.958698,,,,,,,5
1508446633.957650,0.046387,0.078568,-0.025856,0.018713,-0.024485,-0.018867,0.046227,-0.078487,-0.995843,-0.018990,0.002880,0.003808,-5.468270,-16.102882,-42.954433,,,,,,,5
1508446633.977641,0.044955,0.079038,-0.026006,0.022933,0.012733,-0.007092,0.044800,-0.078955,-0.995871,-0.022461,-0.003442,0.008231,-5.543996,-16.122040,-42.937538,,,,,,,5
1508446633.997675,0.045712,0.079375,-0.025967,0.010108,0.052102,0.008803,0.045553,-0.079292,-0.995810,-0.021108,-0.004860,0.009238,-5.559880,-16.141445,-42.928196,,,,,,,5
1508446634.017678,0.046662,0.079737,-0.025683,0.000505,0.069130,0.016190,0.046496,-0.079653,-0.995738,-0.011020,-0.006971,0.005335,-5.530628,-16.159988,-42.924999,,,,,,,5
1508446634.037697,0.048155,0.079770,-0.025329,-0.002691,0.061707,0.019353,0.047983,-0.079686,-0.995665,0.004828,-0.001354,0.006102,-5.464255,-16.157104,-42.934582,,,,,,,5
1508446634.057707,0.049175,0.079856,-0.024971,0.007966,0.044701,0.018363,0.048998,-0.079772,-0.995608,0.003934,0.001448,0.009036,-5.422669,-16.158298,-42.939404,,,,,,,5
1508446634.077717,0.049746,0.080161,-0.024605,0.019694,0.006459,0.020560,0.049565,-0.080075,-0.995556,0.002742,0.001263,0.002651,-5.388296,-16.163374,-42.941818,,,,,,,5
1508446634.097729,0.049867,0.080780,-0.024261,0.029285,-0.049848,0.021775,0.049684,-0.080693,-0.995500,0.020995,-0.002971,-0.001677,-5.406673,-16.183081,-42.932083,,,,,,,5
1508446634.117714,0.050283,0.082166,-0.024129,0.049546,-0.075384,0.012340,0.050092,-0.082073,-0.995367,0.025088,-0.008686,0.002660,-5.384976,-16.193907,-42.930733,,,,,,,5
1508446634.137751,0.049634,0.084153,-0.024083,0.037846,-0.076457,0.006918,0.049438,-0.084054,-0.995234,0.008759,-0.017661,-0.001577,-5.376910,-16.293243,-42.894138,,,,,,,5
1508446634.157761,0.048002,0.085057,-0.023891,-0.014343,-0.047741,0.008639,0.047810,-0.084954,-0.995237,-0.009099,-0.008414,0.000517,-5.419090,-16.363144,-42.862213,,,,,,,5
1508446634.177746,0.046884,0.084321,-0.023589,-0.023953,0.000075,0.010726,0.046700,-0.084221,-0.995352,-0.013039,0.007729,0.007193,-5.502776,-16.361366,-42.852226,,,,,,,5
1508446634.197780,0.046993,0.084402,-0.023351,0.022891,0.003243,0.012179,0.046808,-0.084302,-0.995340,-0.015513,0.016080,0.008417,-5.523585,-16.335997,-42.859226,,,,,,,5
1508446634.217793,0.046127,0.084821,-0.023104,0.053779,-0.011654,0.010294,0.045945,-0.084720,-0.995345,-0.018494,0.009814,0.008345,-5.559837,-16.346029,-42.850719,,,,,,,5
1508446634.237798,0.045088,0.085903,-0.022917,0.032484,0.003213,0.005870,0.044906,-0.085797,-0.995300,-0.012970,-0.005893,0.000229,-5.591631,-16.377768,-42.834454,,,,,,,5
1508446634.257813,0.045307,0.086523,-0.022796,-0.001623,0.027653,0.006779,0.045122,-0.086415,-0.995237,-0.004945,-0.013362,0.000623,-5.606265,-16.408875,-42.820633,,,,,,,5
1508446634.277816,0.046279,0.087223,-0.022595,-0.001639,0.037241,0.014239,0.046087,-0.087112,-0.995132,0.005610,-0.008957,0.011566,-5.594993,-16.445953,-42.807888,,,,,,,5
1508446634.297836,0.047667,0.087098,-0.022427,0.010088,0.017042,0.011127,0.047468,-0.086988,-0.995078,0.007387,0.005872,0.005545,-5.520261,-16.453581,-42.814655,,,,,,,5
1508446634.317832,0.047617,0.087227,-0.022227,0.012232,-0.007396,0.010061,0.047418,-0.087116,-0.995069,-0.001703,0.004887,0.000471,-5.506181,-16.451321,-42.817337,,,,,,,5
1508446634.337844,0.046799,0.087589,-0.021905,0.005826,0.008559,0.015344,0.046603,-0.087477,-0.995076,-0.019640,-0.008150,0.000630,-5.527937,-16.455648,-42.812870,,,,,,,5
1508446634.357868,0.047263,0.087691,-0.021542,0.002617,0.031940,0.017465,0.047064,-0.087578,-0.995045,-0.020117,-0.007698,-0.000270,-5.546280,-16.467190,-42.806057,,,,,,,5
1508446634.377878,0.047790,0.087798,-0.021261,0.003684,0.057405,0.008975,0.047588,-0.087685,-0.995011,-0.015743,-0.001625,0.011216,-5.539337,-16.469646,-42.806011,,,,,,,5
1508446634.397890,0.049141,0.087769,-0.021141,0.003662,0.064782,0.005874,0.048933,-0.087657,-0.994948,0.002062,0.004786,0.007369,-5.478498,-16.472696,-42.812668,,,,,,,5
1508446634.417899,0.050250,0.087863,-0.021059,0.005806,0.047772,0.002684,0.050035,-0.087750,-0.994885,0.001921,0.004940,0.006680,-5.435912,-16.469364,-42.819378,,,,,,,5
1508446634.437910,0.050838,0.088001,-0.020997,0.020724,0.011657,0.005974,0.050619,-0.087887,-0.994843,-0.000509,0.000867,0.001771,-5.396669,-16.469875,-42.824146,,,,,,,5
1508446634.457922,0.050213,0.089106,-0.020808,0.027125,-0.032942,0.012382,0.049993,-0.088988,-0.994777,-0.005316,-0.011613,0.006343,-5.405140,-16.500547,-42.811268,,,,,,,5
1508446634.477929,0.049178,0.090686,-0.020445,0.006891,-0.049899,0.020720,0.048956,-0.090562,-0.994687,0.002786,-0.020537,0.010663,-5.420595,-16.522135,-42.800987,,,,,,,5
1508446634.497943,0.048877,0.091228,-0.020104,-0.025052,-0.028650,0.016214,0.048654,-0.091101,-0.994652,0.010733,-0.007272,0.009728,-5.485300,-16.606709,-42.759995,,,,,,,5
1508446634.517954,0.048902,0.090515,-0.019925,-0.028235,-0.007446,0.003426,0.048683,-0.090391,-0.994716,0.009804,0.017134,0.000117,-5.487116,-16.581444,-42.769562,,,,,,,5
1508446634.537946,0.049135,0.088560,-0.020058,0.005858,-0.013880,-0.009074,0.048922,-0.088444,-0.994879,0.006101,0.034855,-0.008631,-5.488993,-16.575308,-42.771702,,,,,,,5
1508446634.557975,0.048859,0.088135,-0.020187,0.028195,0.004191,-0.002488,0.048650,-0.088021,-0.994930,-0.007039,0.030053,-0.007283,-5.478292,-16.500599,-42.801949,,,,,,,5
1508446634.577986,0.048790,0.087589,-0.019987,0.016402,0.042430,0.014566,0.048584,-0.087477,-0.994981,-0.011276,0.014052,-0.009825,-5.491170,-16.460787,-42.815624,,,,,,,5
1508446634.597997,0.049759,0.087902,-0.019566,-0.005985,0.073275,0.021858,0.049546,-0.087789,-0.994906,0.003325,-0.012675,0.002764,-5.472703,-16.449392,-42.822369,,,,,,,5
1508446634.618006,0.051443,0.088121,-0.019108,-0.013439,0.069038,0.023923,0.051221,-0.088007,-0.994802,0.012775,-0.019644,0.017080,-5.426204,-16.455784,-42.825829,,,,,,,5
1508446634.638016,0.052935,0.088403,-0.018599,-0.015566,0.044629,0.030275,0.052704,-0.088288,-0.994700,0.013794,-0.021865,0.022654,-5.338389,-16.479761,-42.827648,,,,,,,5
1508446634.658028,0.053330,0.088076,-0.017883,-0.019816,0.009593,0.035537,0.053098,-0.087962,-0.994708,0.012835,-0.017675,0.020754,-5.323483,-16.466454,-42.834621,,,,,,,5
1508446634.678018,0.053040,0.087770,-0.017178,-0.013405,-0.024416,0.032370,0.052811,-0.087657,-0.994750,0.014313,-0.011479,0.019790,-5.325727,-16.451305,-42.840164,,,,,,,5
1508446634.698043,0.052393,0.087986,-0.016697,-0.009107,-0.059515,0.020667,0.052167,-0.087872,-0.994765,0.011523,-0.021228,0.000212,-5.363688,-16.445984,-42.837471,,,,,,,5
1508446634.718061,0.050807,0.087855,-0.016430,-0.004809,-0.089311,0.006838,0.050589,-0.087742,-0.994858,0.008676,-0.025616,-0.003265,-5.411216,-16.438894,-42.834213,,,,,,,5
1508446634.738057,0.048777,0.087644,-0.016469,-0.014392,-0.107498,-0.008086,0.048570,-0.087532,-0.994977,-0.001756,-0.022560,-0.001987,-5.470075,-16.434336,-42.828487,,,,,,,5
1508446634.758084,0.045985,0.087308,-0.016732,-0.028210,-0.102233,-0.023102,0.045794,-0.087197,-0.995138,-0.012606,0.004800,0.000845,-5.614318,-16.426756,-42.812721,,,,,,,5
1508446634.778092,0.044360,0.086645,-0.017365,-0.029265,-0.070415,-0.037993,0.044179,-0.086537,-0.995269,-0.016592,0.021702,0.000090,-5.686444,-16.402710,-42.812428,,,,,,,5
1508446634.798104,0.043640,0.086297,-0.018143,-0.004799,-0.020501,-0.038818,0.043464,-0.086190,-0.995330,-0.023841,0.042901,-0.009003,-5.728309,-16.384060,-42.813988,,,,,,,5
1508446634.818115,0.043822,0.086439,-0.018777,0.015386,0.020969,-0.024779,0.043644,-0.086331,-0.995310,-0.024525,0.039029,-0.012335,-5.724299,-16.389481,-42.812447,,,,,,,5
1508446634.838116,0.043605,0.085940,-0.018874,0.011064,0.048683,0.001825,0.043430,-0.085835,-0.995362,-0.028950,0.011829,-0.000701,-5.735751,-16.370689,-42.818104,,,,,,,5
1508446634.858137,0.044853,0.085987,-0.018461,-0.007099,0.073227,0.030442,0.044673,-0.085881,-0.995303,-0.024378,-0.000788,0.002277,-5.702804,-16.374882,-42.820900,,,,,,,5
1508446634.878148,0.046457,0.085748,-0.017662,-0.017803,0.089135,0.042133,0.046270,-0.085643,-0.995251,-0.006658,-0.018026,0.008679,-5.634111,-16.360647,-42.835430,,,,,,,5
1508446634.898158,0.048303,0.086244,-0.016875,-0.022053,0.093369,0.036777,0.048104,-0.086137,-0.995121,0.002372,-0.025039,0.018757,-5.566706,-16.376526,-42.838181,,,,,,,5
1508446634.918168,0.049819,0.085892,-0.016123,-0.017780,0.065746,0.036792,0.049615,-0.085787,-0.995077,0.000586,-0.021406,0.017798,-5.518444,-16.359747,-42.850830,,,,,,,5
1508446634.938180,0.050303,0.086361,-0.015367,0.000348,0.013682,0.036902,0.050095,-0.086254,-0.995013,-0.010941,-0.013172,0.015689,-5.493914,-16.350128,-42.857655,,,,,,,5
1508446634.958190,0.050177,0.086696,-0.014672,0.019532,-0.006530,0.031721,0.049967,-0.086588,-0.994990,-0.012965,-0.020727,0.012843,-5.489262,-16.366753,-42.851906,,,,,,,5
1508446634.978200,0.050077,0.087211,-0.014241,0.023815,0.000849,0.015791,0.049866,-0.087100,-0.994951,-0.003861,-0.025860,0.006563,-5.504372,-16.382210,-42.844063,,,,,,,5
1508446634.998213,0.050147,0.088551,-0.014222,0.020655,0.009279,-0.004459,0.049930,-0.088435,-0.994830,-0.002444,-0.022481,0.008059,-5.504151,-16.405529,-42.835163,,,,,,,5
1508446635.018222,0.050470,0.089959,-0.014513,0.014285,0.017740,-0.016217,0.050244,-0.089838,-0.994688,0.000690,-0.010825,0.009840,-5.496558,-16.488680,-42.804199,,,,,,,5
1508446635.038217,0.051004,0.090287,-0.014988,0.006847,0.017714,-0.024796,0.050775,-0.090165,-0.994632,0.002982,-0.004272,0.004901,-5.483951,-16.513874,-42.796104,,,,,,,5
1508446635.058246,0.051456,0.089843,-0.015400,0.011036,0.014466,-0.017265,0.051226,-0.089722,-0.994649,0.001600,0.014832,-0.002712,-5.443669,-16.533184,-42.793793,,,,,,,5
1508446635.078254,0.051721,0.090317,-0.015658,0.031252,0.012361,-0.008582,0.051487,-0.090195,-0.994592,-0.001988,0.018127,-0.004095,-5.428721,-16.521696,-42.800125,,,,,,,5
1508446635.098264,0.051831,0.090317,-0.015738,0.032300,0.021944,-0.002178,0.051597,-0.090195,-0.994587,-0.007224,0.017517,-0.001385,-5.425582,-16.521072,-42.800762,,,,,,,5
1508446635.118276,0.052492,0.090141,-0.015844,0.022714,0.039994,-0.006502,0.052255,-0.090018,-0.994568,-0.001001,0.017326,0.002274,-5.395006,-16.551922,-42.792709,,,,,,,5
1508446635.138287,0.053439,0.090533,-0.016119,0.020595,0.048464,-0.015031,0.053195,-0.090410,-0.994483,0.001920,0.016801,0.000922,-5.365808,-16.537933,-42.801788,,,,,,,5
1508446635.158296,0.054680,0.090620,-0.016497,0.022728,0.043149,-0.016082,0.054428,-0.090496,-0.994408,0.006500,0.008358,0.000634,-5.306676,-16.543283,-42.807095,,,,,,,5
1508446635.178308,0.055644,0.091011,-0.016822,0.019535,0.030414,-0.012924,0.055385,-0.090886,-0.994320,0.005421,0.000889,-0.002140,-5.275193,-16.559387,-42.804760,,,,,,,5
1508446635.198315,0.055871,0.091486,-0.016968,0.013076,0.025087,-0.005499,0.055609,-0.091358,-0.994264,-0.006719,-0.001110,0.008379,-5.224183,-16.588144,-42.799881,,,,,,,5
1508446635.218328,0.055997,0.091735,-0.017019,0.012010,0.024028,-0.004444,0.055732,-0.091607,-0.994234,-0.010795,-0.000038,0.006335,-5.217186,-16.599037,-42.796509,,,,,,,5
1508446635.238339,0.055389,0.092059,-0.017086,0.024799,0.014444,-0.008604,0.055127,-0.091929,-0.994238,-0.014950,0.000880,0.007926,-5.238628,-16.605160,-42.791515,,,,,,,5
1508446635.258351,0.054655,0.093313,-0.017209,0.029063,0.008066,-0.008574,0.054390,-0.093178,-0.994163,-0.006096,-0.010811,0.000251,-5.273000,-16.651863,-42.769138,,,,,,,5
1508446635.278361,0.054781,0.094301,-0.017304,0.024794,0.002783,-0.001160,0.054510,-0.094161,-0.994064,0.000223,-0.014085,0.002715,-5.275833,-16.685059,-42.755848,,,,,,,5
1508446635.298373,0.055084,0.095540,-0.017274,0.010940,-0.000363,0.008306,0.054805,-0.095395,-0.993930,0.005193,-0.014285,0.005420,-5.268632,-16.739254,-42.735550,,,,,,,5
1508446635.318383,0.055989,0.096456,-0.017079,0.001342,-0.007751,0.019933,0.055700,-0.096307,-0.993792,0.012644,-0.004432,0.009295,-5.240718,-16.799135,-42.715481,,,,,,,5
1508446635.338378,0.055815,0.096487,-0.016604,0.000274,-0.023662,0.026301,0.055527,-0.096337,-0.993799,0.007446,-0.000235,0.008386,-5.236698,-16.803488,-42.714260,,,,,,,5
1508446635.358397,0.055646,0.095981,-0.016233,0.011943,-0.036534,0.017883,0.055362,-0.095833,-0.993857,0.004148,0.009209,0.005530,-5.248072,-16.787003,-42.719349,,,,,,,5
1508446635.378415,0.054958,0.096121,-0.016103,0.023683,-0.034475,0.000946,0.054677,-0.095973,-0.993881,0.001109,0.008906,0.002304,-5.269331,-16.784597,-42.717678,,,,,,,5
1508446635.398417,0.054316,0.096358,-0.016247,0.021566,-0.014335,-0.011833,0.054038,-0.096209,-0.993893,-0.007956,0.007128,0.001095,-5.289192,-16.788799,-42.713566,,,,,,,5
1508446635.418410,0.054166,0.096503,-0.016504,0.013036,0.015407,-0.014011,0.053887,-0.096354,-0.993887,-0.009591,0.006754,0.001990,-5.304935,-16.808311,-42.703938,,,,,,,5
1508446635.438427,0.055023,0.096568,-0.016678,-0.000844,0.060066,-0.004509,0.054739,-0.096418,-0.993835,-0.009634,0.006651,0.003936,-5.297536,-16.807028,-42.705364,,,,,,,5
1508446635.458457,0.056512,0.096226,-0.016542,-0.007284,0.100497,0.012504,0.056221,-0.096078,-0.993785,-0.009483,0.008477,0.007289,-5.250814,-16.795338,-42.715733,,,,,,,5
1508446635.478468,0.058976,0.096000,-0.016128,0.003337,0.096300,0.028560,0.058670,-0.095853,-0.993665,0.009048,0.004010,0.006086,-5.142544,-16.783426,-42.733582,,,,,,,5
1508446635.498480,0.060330,0.096199,-0.015527,0.007615,0.051688,0.030691,0.060014,-0.096051,-0.993566,0.013655,0.008053,0.005696,-5.081084,-16.781155,-42.741825,,,,,,,5
1508446635.518489,0.061962,0.096009,-0.015132,0.004460,-0.001450,0.023171,0.061637,-0.095861,-0.993484,0.020287,0.004751,-0.002213,-5.021499,-16.776932,-42.750526,,,,,,,5
1508446635.538500,0.061832,0.095937,-0.014816,0.002303,-0.047252,0.014604,0.061509,-0.095789,-0.993499,0.005065,-0.000585,-0.004227,-5.000046,-16.766127,-42.757278,,,,,,,5
1508446635.558514,0.059957,0.096182,-0.014501,0.005515,-0.071699,0.011418,0.059644,-0.096034,-0.993590,-0.014051,-0.005498,-0.003191,-5.005384,-16.766560,-42.756481,,,,,,,5
1508446635.578521,0.057612,0.096670,-0.014254,0.011914,-0.081276,0.008270,0.057312,-0.096519,-0.993680,-0.024627,-0.009896,-0.000262,-5.124557,-16.777100,-42.738228,,,,,,,5
1508446635.598533,0.055340,0.097343,-0.014017,0.020418,-0.065332,0.012611,0.055050,-0.097190,-0.993742,-0.026303,-0.015237,0.005720,-5.279181,-16.816036,-42.704094,,,,,,,5
1508446635.618543,0.053161,0.098738,-0.013539,0.012931,-0.023871,0.021099,0.052877,-0.098577,-0.993724,-0.020941,-0.017084,0.006800,-5.294197,-16.820063,-42.700645,,,,,,,5
1508446635.638553,0.052838,0.099018,-0.013105,-0.004117,0.013308,0.017792,0.052555,-0.098856,-0.993713,-0.011097,-0.006887,0.008941,-5.401608,-16.876810,-42.664787,,,,,,,5
1508446635.658564,0.053076,0.098694,-0.012870,-0.011558,0.032388,0.004969,0.052793,-0.098534,-0.993732,-0.002652,0.006936,0.011661,-5.421075,-16.883780,-42.659565,,,,,,,5
1508446635.678576,0.054014,0.097726,-0.012886,-0.010536,0.046092,-0.003539,0.053730,-0.097570,-0.993777,-0.000050,0.010259,0.011187,-5.376651,-16.840076,-42.682453,,,,,,,5
1508446635.698587,0.055114,0.097443,-0.013016,-0.003081,0.053514,-0.006666,0.054825,-0.097289,-0.993745,0.001938,0.007201,0.007264,-5.343307,-16.825058,-42.692562,,,,,,,5
1508446635.718581,0.056200,0.097223,-0.013145,-0.005210,0.045024,-0.004561,0.055905,-0.097070,-0.993706,0.003055,-0.001487,-0.003212,-5.281675,-16.808079,-42.706917,,,,,,,5
1508446635.738607,0.057096,0.097130,-0.013161,-0.012667,0.030178,0.001755,0.056796,-0.096977,-0.993665,0.006345,-0.004921,-0.004321,-5.250565,-16.804832,-42.712032,,,,,,,5
1508446635.758615,0.057803,0.096970,-0.013101,-0.010535,0.018500,0.003893,0.057500,-0.096818,-0.993640,0.010783,-0.003844,-0.006513,-5.207854,-16.802437,-42.718201,,,,,,,5
1508446635.778629,0.058129,0.096704,-0.013106,-0.003065,0.002543,-0.001381,0.057825,-0.096553,-0.993647,0.006216,0.005626,0.004068,-5.194379,-16.792522,-42.723740,,,,,,,5
1508446635.798639,0.058159,0.096705,-0.013225,0.001205,0.001456,-0.007735,0.057855,-0.096554,-0.993645,0.002830,0.004071,0.007271,-5.184745,-16.786102,-42.727432,,,,,,,5
1508446635.818650,0.058209,0.096711,-0.013373,-0.000929,0.011019,-0.007745,0.057904,-0.096561,-0.993641,-0.003339,0.000354,0.008213,-5.184038,-16.788168,-42.726704,,,,,,,5
1508446635.838662,0.058357,0.096723,-0.013579,-0.008438,0.019402,-0.013139,0.058052,-0.096572,-0.993632,-0.007133,-0.003129,0.005946,-5.166393,-16.787292,-42.729187,,,,,,,5
1508446635.858673,0.058822,0.096481,-0.013819,-0.010572,0.021535,-0.011026,0.058515,-0.096331,-0.993628,-0.008222,-0.005125,0.005606,-5.158742,-16.786400,-42.730465,,,,,,,5
1508446635.878682,0.058712,0.096360,-0.013937,-0.008442,0.008797,-0.007823,0.058406,-0.096211,-0.993646,-0.004009,-0.001080,-0.000098,-5.150608,-16.779772,-42.734047,,,,,,,5
1508446635.898695,0.058847,0.096251,-0.014029,-0.005257,0.008814,-0.002473,0.058541,-0.096103,-0.993648,-0.000466,-0.001874,0.004528,-5.145020,-16.772057,-42.737747,,,,,,,5
1508446635.918682,0.059178,0.096337,-0.014031,-0.006326,0.004581,0.001774,0.058869,-0.096188,-0.993621,0.003906,-0.001865,0.001662,-5.143200,-16.773911,-42.737240,,,,,,,5
1508446635.938713,0.059553,0.096074,-0.014053,-0.015902,0.009879,-0.003625,0.059243,-0.095926,-0.993624,0.007652,0.001566,0.007738,-5.127290,-16.773882,-42.739166,,,,,,,5
1508446635.958725,0.060174,0.095473,-0.014207,-0.030802,0.026855,-0.012253,0.059863,-0.095328,-0.993644,0.003628,0.003775,0.006111,-5.090246,-16.748547,-42.753525,,,,,,,5
1508446635.978731,0.060779,0.094308,-0.014522,-0.039310,0.041695,-0.022960,0.060472,-0.094169,-0.993718,-0.006379,0.004187,-0.000697,-5.055855,-16.708426,-42.773300,,,,,,,5
1508446635.998746,0.061403,0.093418,-0.014983,-0.030784,0.046979,-0.029274,0.061097,-0.093282,-0.993763,-0.012253,0.005651,-0.000392,-5.029196,-16.680698,-42.787262,,,,,,,5
1508446636.018758,0.061619,0.092863,-0.015429,-0.006372,0.041556,-0.024835,0.061314,-0.092729,-0.993802,-0.012364,0.002413,0.002194,-5.024627,-16.650213,-42.799671,,,,,,,5
1508446636.038768,0.062003,0.093647,-0.015757,0.013844,0.030963,-0.012964,0.061692,-0.093510,-0.993705,0.000656,-0.011776,0.002571,-4.992374,-16.660389,-42.799484,,,,,,,5
1508446636.058756,0.062534,0.094094,-0.015977,0.000006,0.016109,-0.009896,0.062217,-0.093955,-0.993630,0.003015,-0.012109,0.002755,-4.977171,-16.679699,-42.793736,,,,,,,5
1508446636.078780,0.063070,0.094323,-0.016231,-0.010634,0.006550,-0.011055,0.062748,-0.094183,-0.993575,0.006587,-0.005243,0.005935,-4.942911,-16.704712,-42.787949,,,,,,,5
1508446636.098800,0.063177,0.094124,-0.016419,-0.005316,0.003376,-0.006755,0.062855,-0.093985,-0.993587,0.004436,-0.000329,0.008892,-4.928584,-16.704502,-42.789680,,,,,,,5
1508446636.118814,0.063278,0.094248,-0.016443,0.007447,-0.001908,0.002929,0.062955,-0.094108,-0.993569,0.002612,-0.000817,0.007898,-4.920433,-16.704695,-42.790546,,,,,,,5
1508446636.138808,0.063271,0.094452,-0.016351,0.001057,-0.007208,0.005002,0.062947,-0.094312,-0.993551,0.003826,-0.002093,0.005697,-4.926273,-16.711918,-42.787052,,,,,,,5
1508446636.158832,0.063120,0.094105,-0.016311,-0.018172,-0.005212,-0.001566,0.062799,-0.093966,-0.993593,-0.000635,0.004077,0.000566,-4.926579,-16.712429,-42.786816,,,,,,,5
1508446636.178823,0.062830,0.093476,-0.016265,-0.019239,-0.009454,0.000551,0.062515,-0.093340,-0.993670,-0.004974,0.007280,0.000567,-4.938218,-16.681753,-42.797447,,,,,,,5
1508446636.198855,0.062152,0.092900,-0.016173,-0.010728,-0.000957,0.001693,0.061844,-0.092767,-0.993765,-0.008972,0.006021,0.002371,-4.960278,-16.657650,-42.804283,,,,,,,5
1508446636.218853,0.062142,0.092608,-0.016109,-0.012866,0.014979,0.001687,0.061836,-0.092475,-0.993793,-0.006736,0.003318,0.005939,-4.969944,-16.643936,-42.808495,,,,,,,5
1508446636.238875,0.062410,0.092296,-0.016073,-0.019258,0.029847,-0.000484,0.062104,-0.092165,-0.993805,-0.004563,-0.000975,0.003662,-4.968104,-16.628027,-42.814892,,,,,,,5
1508446636.258887,0.063030,0.091898,-0.016067,-0.022455,0.044714,-0.002628,0.062722,-0.091769,-0.993803,-0.002359,0.000720,0.006697,-4.941968,-16.609852,-42.824966,,,,,,,5
1508446636.278888,0.063863,0.091461,-0.016135,-0.017132,0.059569,-0.006832,0.063553,-0.091334,-0.993790,-0.005478,0.001581,0.003663,-4.918057,-16.595913,-42.833126,,,,,,,5
1508446636.298888,0.064987,0.091232,-0.016265,-0.006482,0.062743,-0.008871,0.064671,-0.091105,-0.993739,-0.006001,0.000041,0.001338,-4.869563,-16.581190,-42.844368,,,,,,,5
1508446636.318919,0.065885,0.091266,-0.016408,-0.000169,0.044568,-0.006734,0.065564,-0.091140,-0.993677,-0.006558,-0.005586,-0.004614,-4.817034,-16.580494,-42.850571,,,,,,,5
1508446636.338909,0.065518,0.091476,-0.016328,0.006213,0.021229,0.003949,0.065198,-0.091348,-0.993682,-0.015317,0.001093,0.007766,-4.811522,-16.588213,-42.848206,,,,,,,5
1508446636.358939,0.065710,0.091872,-0.016171,0.029620,0.031862,0.010538,0.065386,-0.091743,-0.993634,-0.014773,0.002067,0.010540,-4.814117,-16.594717,-42.845394,,,,,,,5
1508446636.378936,0.065977,0.093088,-0.015731,0.041301,0.025553,0.030860,0.065643,-0.092953,-0.993504,-0.002762,-0.009403,0.002141,-4.821904,-16.617218,-42.835800,,,,,,,5
1508446636.398962,0.066858,0.094226,-0.015133,0.013616,0.028759,0.031699,0.066511,-0.094087,-0.993340,0.006975,-0.004592,0.000908,-4.795457,-16.689466,-42.810673,,,,,,,5
1508446636.418954,0.067685,0.094294,-0.014642,-0.004473,0.046787,0.019851,0.067333,-0.094154,-0.993278,0.002400,0.000648,0.009925,-4.780056,-16.697527,-42.809254,,,,,,,5
1508446636.438979,0.068692,0.093985,-0.014272,0.002976,0.060586,0.017793,0.068335,-0.093846,-0.993239,-0.007239,0.008092,0.006911,-4.721446,-16.687033,-42.819843,,,,,,,5
1508446636.458993,0.069864,0.094214,-0.013902,0.013617,0.062717,0.021077,0.069498,-0.094075,-0.993136,-0.013422,0.003071,0.003345,-4.694034,-16.682194,-42.824741,,,,,,,5
1508446636.478982,0.070516,0.094681,-0.013386,0.018934,0.057420,0.026441,0.070142,-0.094540,-0.993047,-0.022199,-0.004597,-0.010035,-4.672089,-16.695770,-42.821854,,,,,,,5
1508446636.499016,0.070614,0.095294,-0.012655,0.024166,0.059457,0.039238,0.070235,-0.095150,-0.992982,-0.033965,-0.003773,-0.001281,-4.624464,-16.714659,-42.819656,,,,,,,5
1508446636.519025,0.072243,0.095768,-0.011749,0.017733,0.107306,0.050933,0.071850,-0.095622,-0.992821,-0.038845,-0.000951,0.007531,-4.632419,-16.730064,-42.812775,,,,,,,5
1508446636.539037,0.074077,0.096227,-0.010589,0.016633,0.166806,0.054164,0.073667,-0.096079,-0.992644,-0.035870,0.000177,0.018737,-4.594049,-16.742243,-42.812153,,,,,,,5
1508446636.559049,0.077507,0.096845,-0.009549,0.033660,0.191224,0.052193,0.077066,-0.096694,-0.992326,-0.007654,0.000228,-0.002074,-4.428941,-16.759195,-42.822914,,,,,,,5
1508446636.579052,0.080845,0.097869,-0.008509,0.045373,0.171052,0.057599,0.080371,-0.097713,-0.991964,-0.005709,-0.004002,-0.010264,-4.297040,-16.787560,-42.825245,,,,,,,5
1508446636.599069,0.083534,0.098899,-0.007255,0.045366,0.125432,0.074600,0.083029,-0.098738,-0.991644,-0.008368,-0.002978,-0.010584,-4.297040,-16.787560,-42.825245,,,,,,,5
1508446636.619079,0.085163,0.099920,-0.005462,0.024013,0.172254,0.094689,0.084635,-0.099754,-0.991406,-0.048289,-0.004250,0.005871,-4.157983,-16.860382,-42.810364,,,,,,,5
1508446636.639078,0.086323,0.099878,-0.003034,-0.013332,0.281733,0.108307,0.085786,-0.099712,-0.991311,-0.058183,0.006328,0.015802,-4.130946,-16.858757,-42.813618,,,,,,,5
1508446636.659100,0.091409,0.099588,-0.000733,-0.008105,0.350625,0.101980,0.090830,-0.099424,-0.990891,-0.047327,0.008222,0.017655,-3.992093,-16.831192,-42.837627,,,,,,,5
1508446636.679112,0.097863,0.099584,0.001156,0.001501,0.354816,0.087157,0.097223,-0.099420,-0.990285,-0.001992,0.000359,0.012181,-3.879451,-16.801867,-42.859486,,,,,,,5
1508446636.699108,0.104156,0.099743,0.002900,-0.006995,0.299590,0.090239,0.103451,-0.099577,-0.989637,0.036869,-0.012758,-0.008364,-3.475147,-16.794128,-42.897190,,,,,,,5
1508446636.719132,0.110030,0.099959,0.004979,-0.018726,0.247637,0.116721,0.109260,-0.099792,-0.988991,0.026253,-0.009476,-0.008689,-3.317296,-16.783337,-42.913906,,,,,,,5
1508446636.739146,0.114846,0.099812,0.007556,-0.018762,0.263629,0.132704,0.114023,-0.099646,-0.988468,-0.014795,0.006232,0.017551,-3.062543,-16.763504,-42.940586,,,,,,,5
1508446636.759156,0.119501,0.099972,0.010453,0.013149,0.285958,0.143632,0.118622,-0.099805,-0.987911,-0.025711,0.008283,0.022365,-2.923151,-16.749567,-42.955742,,,,,,,5
1508446636.779153,0.124871,0.100787,0.013329,0.026980,0.278545,0.152259,0.123914,-0.100616,-0.987179,-0.028440,0.003814,0.018047,-2.754403,-16.745922,-42.968307,,,,,,,5
1508446636.799160,0.129854,0.101787,0.016487,0.029042,0.256226,0.165011,0.128819,-0.101611,-0.986449,0.020183,-0.022351,0.004011,-2.526787,-16.765970,-42.974480,,,,,,,5
1508446636.819187,0.134370,0.102727,0.019649,0.024807,0.238138,0.156445,0.133260,-0.102546,-0.985762,0.031840,-0.021004,0.004057,-2.407640,-16.777451,-42.976841,,,,,,,5
1508446636.839197,0.139356,0.103557,0.022608,0.019468,0.286990,0.151114,0.138162,-0.103372,-0.985000,0.038032,-0.004706,0.016052,-2.250107,-16.790606,-42.980236,,,,,,,5
1508446636.859210,0.145535,0.104327,0.025363,0.017340,0.347482,0.133041,0.144233,-0.104138,-0.984049,-0.001853,0.016095,0.023005,-1.988502,-16.803741,-42.988003,,,,,,,5
1508446636.879219,0.152828,0.105341,0.027892,0.042870,0.394212,0.133287,0.151390,-0.105146,-0.982866,-0.022819,0.005125,0.019563,-1.789781,-16.813707,-42.992840,,,,,,,5
1508446636.899229,0.160566,0.106931,0.030460,0.062014,0.406980,0.141973,0.158964,-0.106727,-0.981499,-0.035718,-0.004921,0.009071,-1.496712,-16.850277,-42.989723,,,,,,,5
1508446636.919241,0.168770,0.108332,0.033158,0.030054,0.435687,0.143860,0.166985,-0.108120,-0.980013,-0.010536,-0.018162,-0.009428,-1.111753,-16.906109,-42.979481,,,,,,,5
1508446636.939241,0.177644,0.109427,0.035932,-0.014656,0.439941,0.138171,0.175654,-0.109209,-0.978376,0.007756,-0.015898,-0.006350,-0.781637,-16.912758,-42.984135,,,,,,,5
1508446636.959261,0.185982,0.109474,0.038472,-0.022066,0.428185,0.116806,0.183805,-0.109256,-0.976872,0.022647,-0.006909,0.010548,-0.521135,-16.926119,-42.982826,,,,,,,5
1508446636.979275,0.194002,0.109402,0.040700,-0.024161,0.397341,0.106118,0.191635,-0.109184,-0.975374,0.044205,-0.004418,0.012209,-0.114640,-16.900124,-42.996056,,,,,,,5
1508446636.999279,0.200851,0.109528,0.042799,-0.009207,0.322948,0.099796,0.198308,-0.109309,-0.974025,0.065989,-0.009007,0.015621,0.104868,-16.887510,-43.001041,,,,,,,5
1508446637.019293,0.206229,0.109744,0.044717,-0.011356,0.255820,0.089048,0.203538,-0.109524,-0.972922,0.081725,-0.003620,0.016302,0.341270,-16.879805,-43.002838,,,,,,,5
1508446637.039306,0.210584,0.109610,0.046241,-0.025131,0.208999,0.064409,0.207777,-0.109391,-0.972040,0.082216,0.011338,0.018412,0.484668,-16.872335,-43.004391,,,,,,,5
1508446637.059315,0.213878,0.109623,0.047352,0.001547,0.146252,0.048611,0.210977,-0.109404,-0.971349,0.067999,0.012739,0.006216,0.710508,-16.848364,-43.010654,,,,,,,5
1508446637.079326,0.215840,0.110079,0.048096,0.018640,0.076085,0.035922,0.212872,-0.109856,-0.970885,0.061511,0.011910,0.001097,0.781791,-16.854012,-43.007202,,,,,,,5
1508446637.099319,0.216262,0.110774,0.048530,0.036803,-0.007889,0.024296,0.213265,-0.110548,-0.970720,0.044547,-0.011462,-0.000288,0.826259,-16.879549,-42.996349,,,,,,,5
1508446637.119335,0.215532,0.111718,0.048851,0.042139,-0.047183,0.028570,0.212534,-0.111486,-0.970773,0.038473,-0.015406,-0.000601,0.807009,-16.905886,-42.986370,,,,,,,5
1508446637.139352,0.214088,0.112691,0.049434,0.043191,-0.081118,0.045588,0.211108,-0.112452,-0.970973,0.020505,-0.021642,-0.011739,0.752165,-16.942371,-42.973000,,,,,,,5
1508446637.159347,0.212638,0.113774,0.050154,0.045308,-0.052440,0.044563,0.209675,-0.113528,-0.971158,-0.004429,-0.006299,0.002850,0.652131,-16.990488,-42.955631,,,,,,,5
1508446637.179380,0.212276,0.114865,0.050743,0.048484,0.009148,0.037183,0.209297,-0.114613,-0.971112,-0.004066,-0.002163,0.006635,0.616993,-17.020323,-42.944340,,,,,,,5
1508446637.199390,0.213050,0.115840,0.051144,0.039965,0.053730,0.025434,0.210025,-0.115581,-0.970840,0.007947,-0.002950,0.010696,0.618738,-17.061035,-42.928158,,,,,,,5
1508446637.219404,0.215448,0.117267,0.051234,0.010175,0.060074,0.011351,0.212317,-0.116998,-0.970172,0.020822,-0.016074,0.003970,0.669756,-17.096748,-42.913177,,,,,,,5
1508446637.239412,0.216669,0.117024,0.051342,-0.026004,0.062172,-0.001723,0.213507,-0.116758,-0.969939,0.015573,-0.013644,0.003509,0.757768,-17.136574,-42.895824,,,,,,,5
1508446637.259422,0.218079,0.116311,0.051414,-0.032389,0.077026,-0.008153,0.214893,-0.116049,-0.969718,0.013882,-0.001489,0.020027,0.813739,-17.111721,-42.904720,,,,,,,5
1508446637.279435,0.221266,0.115271,0.050928,0.005969,0.076951,-0.024873,0.218009,-0.115015,-0.969146,0.019174,0.015376,0.029357,0.865290,-17.090759,-42.912067,,,,,,,5
1508446637.299419,0.223906,0.115466,0.050020,0.048583,0.052473,-0.031993,0.220562,-0.115209,-0.968545,0.021092,0.007436,0.009622,1.102175,-17.062489,-42.917889,,,,,,,5
1508446637.319454,0.225750,0.116365,0.049135,0.044313,0.048254,-0.024579,0.222323,-0.116102,-0.968035,0.006131,-0.009340,-0.001188,1.129251,-17.083675,-42.908752,,,,,,,5
1508446637.339357,0.226921,0.117611,0.048606,0.017680,0.059976,-0.018401,0.223425,-0.117340,-0.967633,-0.004873,-0.018860,-0.006046,1.239219,-17.171169,-42.870777,,,,,,,5
1508446637.359368,0.226465,0.120079,0.048424,0.001720,0.048295,-0.018541,0.222917,-0.119790,-0.967449,-0.012743,-0.012824,-0.003147,1.243161,-17.256056,-42.836567,,,,,,,5
1508446637.379377,0.226757,0.120327,0.048014,-0.013165,0.022791,-0.022941,0.223193,-0.120037,-0.967355,-0.008395,-0.011997,0.001489,1.245877,-17.277336,-42.827908,,,,,,,5
1508446637.399390,0.227788,0.121509,0.047822,0.002765,0.022874,0.002744,0.224158,-0.121210,-0.966986,0.007775,-0.013388,0.011038,1.253452,-17.320486,-42.810253,,,,,,,5
1508446637.419378,0.230313,0.121460,0.047635,0.000630,0.046236,-0.001516,0.226600,-0.121161,-0.966422,0.015923,0.011619,0.012580,1.352067,-17.360462,-42.791058,,,,,,,5
1508446637.439411,0.232236,0.120779,0.047354,-0.008935,0.066371,-0.017551,0.228477,-0.120486,-0.966065,0.015480,0.013506,0.011460,1.420607,-17.341652,-42.796463,,,,,,,5
1508446637.459408,0.234591,0.119724,0.046895,0.004906,0.062118,-0.017440,0.230781,-0.119438,-0.965647,0.003563,0.003060,0.005442,1.570965,-17.280426,-42.815971,,,,,,,5
1508446637.479424,0.235700,0.119988,0.046598,0.013420,0.043018,-0.009931,0.231845,-0.119700,-0.965360,0.001645,-0.001684,0.003614,1.618845,-17.282568,-42.813324,,,,,,,5
1508446637.499441,0.236531,0.120102,0.046419,-0.005744,0.035599,-0.007966,0.232644,-0.119814,-0.965154,0.001060,-0.003905,-0.001033,1.663392,-17.299488,-42.804779,,,,,,,5
1508446637.519436,0.237395,0.119641,0.046414,-0.014277,0.033510,0.000480,0.233490,-0.119355,-0.965006,0.004730,0.004808,-0.000189,1.704645,-17.288536,-42.807583,,,,,,,5
1508446637.539464,0.237901,0.119593,0.046504,0.005955,0.019700,0.003831,0.233980,-0.119308,-0.964893,0.006301,0.007629,0.001667,1.731798,-17.274681,-42.812084,,,,,,,5
1508446637.559469,0.238338,0.119759,0.046465,0.025128,-0.000489,0.005039,0.234397,-0.119473,-0.964772,0.007302,0.006359,0.003361,1.743371,-17.278158,-42.810211,,,,,,,5
1508446637.579486,0.238922,0.120772,0.046413,0.021932,-0.020643,0.012450,0.234931,-0.120479,-0.964517,0.013589,-0.009404,-0.001044,1.767464,-17.307806,-42.797249,,,,,,,5
1508446637.599497,0.238387,0.121112,0.046631,0.005959,-0.024877,0.014445,0.234406,-0.120816,-0.964602,0.013855,-0.009387,-0.004407,1.767022,-17.334719,-42.786369,,,,,,,5
1508446637.619506,0.238386,0.121186,0.046882,-0.016400,-0.013189,0.011075,0.234402,-0.120890,-0.964594,0.011051,-0.006414,0.004206,1.759026,-17.345821,-42.782200,,,,,,,5
1508446637.639518,0.238213,0.120824,0.047160,-0.020662,-0.000447,0.008920,0.234247,-0.120531,-0.964677,-0.003747,0.001146,0.013047,1.747223,-17.335127,-42.787018,,,,,,,5
1508446637.659517,0.238089,0.120899,0.047413,-0.003632,0.009110,0.010132,0.234124,-0.120605,-0.964697,-0.009606,-0.003815,0.014105,1.741564,-17.316454,-42.794807,,,,,,,5
1508446637.679538,0.238371,0.121115,0.047523,-0.003622,0.008029,0.004808,0.234390,-0.120820,-0.964606,0.002213,-0.005249,0.005728,1.735167,-17.323151,-42.792355,,,,,,,5
1508446637.699537,0.238672,0.121075,0.047636,-0.006811,-0.000467,0.004775,0.234681,-0.120780,-0.964540,0.009185,-0.003473,0.000535,1.754860,-17.329931,-42.788807,,,,,,,5
1508446637.719536,0.239092,0.121339,0.047778,-0.000428,-0.012132,0.011207,0.235079,-0.121041,-0.964410,0.004240,-0.004478,-0.000022,1.767795,-17.332230,-42.787350,,,,,,,5
1508446637.739570,0.238911,0.121529,0.047995,-0.001486,-0.016387,0.009066,0.234899,-0.121230,-0.964430,0.005152,-0.004335,0.000029,1.760970,-17.338903,-42.784924,,,,,,,5
1508446637.759582,0.238783,0.121589,0.048141,-0.011062,-0.017455,0.005792,0.234774,-0.121289,-0.964453,0.003385,-0.002902,0.006308,1.758868,-17.347284,-42.781612,,,,,,,5
1508446637.779581,0.238788,0.121777,0.048251,-0.011059,-0.018520,0.004726,0.234774,-0.121476,-0.964430,0.004133,-0.003829,0.007017,1.746940,-17.349461,-42.781219,,,,,,,5
1508446637.799581,0.238404,0.121752,0.048363,-0.006793,-0.032331,0.004751,0.234404,-0.121452,-0.964523,0.004274,-0.003197,0.006957,1.738562,-17.349081,-42.781712,,,,,,,5
1508446637.819607,0.238052,0.121356,0.048303,-0.000381,-0.050422,-0.003728,0.234076,-0.121058,-0.964652,0.002969,0.007289,0.002189,1.724815,-17.342915,-42.784771,,,,,,,5
1508446637.839605,0.236613,0.121362,0.048081,0.013493,-0.094007,-0.010035,0.232688,-0.121065,-0.964987,0.001733,0.003923,-0.001032,1.694027,-17.336254,-42.788700,,,,,,,5
1508446637.859609,0.233771,0.122076,0.047939,0.011372,-0.146024,0.000556,0.229924,-0.121773,-0.965560,-0.006382,-0.016029,-0.004670,1.637313,-17.340351,-42.789249,,,,,,,5
1508446637.879646,0.230988,0.122270,0.048340,-0.020634,-0.105550,0.025877,0.227230,-0.121965,-0.966173,-0.005993,-0.009810,0.002138,1.446274,-17.364874,-42.786186,,,,,,,5
1508446637.899637,0.229722,0.121896,0.049123,-0.027074,-0.035399,0.035459,0.226017,-0.121594,-0.966505,-0.002247,0.002011,-0.000994,1.375051,-17.361656,-42.789837,,,,,,,5
1508446637.919667,0.229647,0.121007,0.049655,-0.017470,-0.014222,0.016389,0.225970,-0.120712,-0.966626,0.012480,0.018524,0.000287,1.354661,-17.316702,-42.808701,,,,,,,5
1508446637.939679,0.229996,0.120316,0.049622,-0.004644,-0.029185,-0.008006,0.226325,-0.120026,-0.966628,0.022164,0.015900,0.008987,1.332658,-17.301304,-42.815620,,,,,,,5
,,,,,,,,,,,,,,,,42.293516,-71.264413,58.074623,-1.000000,-1.000000,1508446637.945943,5
1508446637.959673,0.229579,0.120100,0.049163,0.009238,-0.052621,-0.024946,0.225928,-0.119811,-0.966748,0.010552,0.007323,0.012112,1.349533,-17.280090,-42.823658,,,,,,,5
1508446637.979699,0.228593,0.120196,0.048620,0.013493,-0.058982,-0.020656,0.224972,-0.119906,-0.966959,0.002018,0.003085,0.011408,1.341905,-17.277042,-42.825127,,,,,,,5
1508446637.999713,0.226962,0.121201,0.048455,0.012303,-0.037873,-0.001534,0.223368,-0.120905,-0.967207,-0.015192,-0.012655,0.006880,1.271600,-17.306545,-42.815353,,,,,,,5
1508446638.019707,0.225841,0.121909,0.048599,0.014403,-0.018712,0.010210,0.222264,-0.121608,-0.967373,-0.019414,-0.012197,-0.005116,1.230333,-17.333878,-42.805504,,,,,,,5
1508446638.039731,0.225049,0.122360,0.048836,-0.000506,-0.011269,0.010093,0.221486,-0.122055,-0.967495,-0.014378,-0.010666,-0.010181,1.182940,-17.359489,-42.796463,,,,,,,5
1508446638.059744,0.224385,0.122474,0.049155,-0.016480,-0.000643,0.008905,0.220840,-0.122168,-0.967628,-0.013855,-0.007562,-0.002052,1.120777,-17.378033,-42.790607,,,,,,,5
1508446638.079756,0.223379,0.122318,0.049554,-0.020744,0.011043,0.008879,0.219871,-0.122014,-0.967869,-0.012137,0.001347,0.011692,1.083331,-17.368980,-42.795246,,,,,,,5
1508446638.099764,0.223498,0.121960,0.049873,-0.014369,0.029106,0.011075,0.219996,-0.121658,-0.967885,-0.013712,0.004318,0.011693,1.083331,-17.368980,-42.795246,,,,,,,5
1508446638.119775,0.223819,0.121727,0.050186,-0.003727,0.036540,0.012233,0.220313,-0.121427,-0.967842,-0.013617,0.005247,0.010246,1.079833,-17.335308,-42.808987,,,,,,,5
1508446638.139758,0.224306,0.122023,0.050541,-0.001609,0.037623,0.018640,0.220776,-0.121721,-0.967699,0.000690,-0.005888,0.000185,1.095278,-17.337486,-42.807713,,,,,,,5
1508446638.159770,0.225134,0.122163,0.050899,-0.007995,0.037623,0.017523,0.221574,-0.121859,-0.967500,0.004821,-0.005613,-0.004409,1.108723,-17.344004,-42.804726,,,,,,,5
1508446638.179806,0.226186,0.121923,0.051252,-0.017572,0.029128,0.016372,0.222598,-0.121622,-0.967294,0.009641,0.002511,0.000986,1.158059,-17.340296,-42.804924,,,,,,,5
1508446638.199798,0.226869,0.121561,0.051671,-0.016510,0.023827,0.019571,0.223268,-0.121262,-0.967185,0.008253,0.003983,0.003531,1.182737,-17.326092,-42.809998,,,,,,,5
1508446638.219808,0.227382,0.121286,0.052074,-0.013311,0.020632,0.017466,0.223772,-0.120989,-0.967103,0.002882,0.003496,0.007432,1.212968,-17.305916,-42.817314,,,,,,,5
1508446638.239840,0.227942,0.121174,0.052320,-0.003710,0.011041,0.010084,0.224316,-0.120877,-0.966991,0.009250,0.001447,0.005580,1.225770,-17.295094,-42.821320,,,,,,,5
1508446638.259824,0.228059,0.121132,0.052423,-0.003692,0.003575,0.001561,0.224431,-0.120836,-0.966969,0.009349,0.001940,0.006138,1.243051,-17.291908,-42.822109,,,,,,,5
1508446638.279860,0.228302,0.121157,0.052381,0.001645,-0.007064,-0.002662,0.224665,-0.120861,-0.966912,0.008749,-0.001163,0.005577,1.257336,-17.291771,-42.821747,,,,,,,5
1508446638.299873,0.228410,0.121376,0.052271,0.002713,-0.013438,-0.002658,0.224763,-0.121078,-0.966862,0.010466,-0.005936,0.000111,1.249327,-17.293905,-42.821117,,,,,,,5
1508446638.319878,0.228433,0.121353,0.052206,-0.006872,-0.008120,-0.002733,0.224786,-0.121055,-0.966859,0.005210,-0.001595,0.004548,1.255278,-17.300575,-42.818253,,,,,,,5
1508446638.339892,0.228392,0.121227,0.052217,-0.006878,-0.007046,0.000462,0.224750,-0.120930,-0.966883,0.002407,-0.000575,0.005259,1.260859,-17.300188,-42.818245,,,,,,,5
1508446638.359905,0.227952,0.121355,0.052308,-0.007944,-0.002797,0.000456,0.224321,-0.121057,-0.966967,-0.008149,-0.004218,0.005465,1.250924,-17.296511,-42.820023,,,,,,,5
1508446638.379902,0.227621,0.121344,0.052363,-0.012199,-0.002803,-0.001708,0.224001,-0.121046,-0.967042,-0.005053,-0.000185,0.005037,1.232166,-17.303875,-42.817589,,,,,,,5
1508446638.399924,0.227383,0.121036,0.052376,-0.004744,-0.003873,-0.002712,0.223780,-0.120741,-0.967132,-0.006693,0.006361,0.008529,1.224776,-17.298031,-42.820164,,,,,,,5
1508446638.419938,0.227287,0.120962,0.052320,0.004834,0.005683,-0.002626,0.223689,-0.120667,-0.967162,-0.005366,0.001221,0.005920,1.211921,-17.283504,-42.826393,,,,,,,5
1508446638.439934,0.227241,0.121223,0.052338,0.001628,0.015261,0.001614,0.223637,-0.120927,-0.967142,-0.004796,-0.005279,-0.003546,1.211555,-17.288580,-42.824356,,,,,,,5
1508446638.459957,0.227367,0.121393,0.052450,-0.006897,0.018463,0.004741,0.223754,-0.121095,-0.967094,-0.006210,-0.008925,-0.003671,1.213310,-17.294788,-42.821796,,,,,,,5
1508446638.479971,0.227454,0.121421,0.052664,-0.013288,0.014227,0.007879,0.223838,-0.121123,-0.967071,-0.003089,-0.002535,0.002731,1.209573,-17.305204,-42.817696,,,,,,,5
1508446638.499982,0.227564,0.121030,0.052926,-0.007969,0.014232,0.010052,0.223955,-0.120735,-0.967092,-0.002962,0.003486,0.004934,1.217527,-17.287157,-42.824760,,,,,,,5
1508446638.519979,0.227800,0.120884,0.053191,-0.003718,0.019553,0.013286,0.224187,-0.120590,-0.967057,-0.003896,0.004547,0.002991,1.220276,-17.281109,-42.827126,,,,,,,5
1508446638.559991,0.228390,0.120830,0.053624,0.006937,0.025899,0.006990,0.224759,-0.120537,-0.966930,-0.006787,0.002037,0.003704,1.227953,-17.269426,-42.831615,,,,,,,5
1508446638.540005,0.227891,0.120772,0.053467,-0.004780,0.024853,0.010087,0.224278,-0.120479,-0.967049,-0.006306,0.001979,0.003823,1.227953,-17.269426,-42.831615,,,,,,,5
1508446638.580007,0.228890,0.121179,0.053667,0.017591,0.023758,0.003882,0.225232,-0.120882,-0.966777,-0.001432,-0.000944,0.003169,1.250998,-17.270458,-42.830532,,,,,,,5
1508446638.600034,0.229587,0.121651,0.053590,0.008020,0.012067,0.000600,0.225893,-0.121351,-0.966564,0.013120,-0.007677,-0.005497,1.277909,-17.292721,-42.820755,,,,,,,5
1508446638.620045,0.230114,0.121623,0.053566,-0.015471,0.001248,-0.001790,0.226404,-0.121323,-0.966448,0.014456,-0.004394,0.001452,1.298788,-17.299721,-42.817299,,,,,,,5
1508446638.640051,0.230445,0.121161,0.053655,-0.023997,-0.001915,0.003460,0.226736,-0.120864,-0.966428,0.011713,0.000442,0.006085,1.317475,-17.297333,-42.817696,,,,,,,5
1508446638.660043,0.230863,0.120577,0.053753,-0.004839,-0.000849,0.006813,0.227156,-0.120285,-0.966401,0.003786,0.008636,0.016328,1.341937,-17.265278,-42.829868,,,,,,,5
1508446638.680073,0.230889,0.120661,0.053786,0.014334,-0.005119,0.003774,0.227179,-0.120368,-0.966386,0.002404,0.004203,0.003159,1.350061,-17.258154,-42.832485,,,,,,,5
1508446638.700086,0.230620,0.120992,0.053789,0.016469,-0.015743,0.003783,0.226910,-0.120697,-0.966408,-0.001447,-0.000794,-0.001549,1.348417,-17.265411,-42.829609,,,,,,,5
1508446638.720099,0.230016,0.121398,0.053889,0.003692,-0.018920,0.004741,0.226315,-0.121100,-0.966497,-0.002636,-0.004449,-0.001856,1.319010,-17.284054,-42.823009,,,,,,,5
1508446638.740105,0.229559,0.121629,0.054034,-0.012287,-0.000853,0.004623,0.225867,-0.121329,-0.966573,-0.005622,-0.006127,0.004323,1.296894,-17.295029,-42.819256,,,,,,,5
1508446638.760118,0.229634,0.121346,0.054203,-0.018682,0.016144,0.003518,0.225948,-0.121049,-0.966589,-0.004039,-0.001037,0.003577,1.288154,-17.295052,-42.819508,,,,,,,5
1508446638.780131,0.229830,0.121024,0.054335,-0.009100,0.021447,0.002536,0.226145,-0.120729,-0.966583,-0.005015,0.003404,0.003097,1.289957,-17.281132,-42.825073,,,,,,,5
1508446638.800141,0.230097,0.120305,0.054356,0.000450,0.023466,-0.002763,0.226424,-0.120015,-0.966607,-0.003600,0.010548,0.005303,1.309010,-17.249847,-42.837105,,,,,,,5
1508446638.820150,0.230529,0.120320,0.054215,0.008980,0.017069,-0.008021,0.226841,-0.120029,-0.966507,-0.001392,0.003361,0.006729,1.309010,-17.249847,-42.837105,,,,,,,5
1508446638.840148,0.230892,0.120649,0.053984,0.010054,-0.004173,-0.006964,0.227182,-0.120357,-0.966386,0.007452,-0.006124,-0.001082,1.339359,-17.244596,-42.838284,,,,,,,5
1508446638.860173,0.231352,0.121305,0.053707,-0.002709,-0.020106,-0.009210,0.227609,-0.121008,-0.966205,0.010398,-0.005899,0.008838,1.361759,-17.281225,-42.822811,,,,,,,5
1508446638.880178,0.231347,0.121101,0.053499,-0.012289,-0.013738,-0.012479,0.227610,-0.120805,-0.966230,0.010626,-0.001097,0.013501,1.366590,-17.285944,-42.820751,,,,,,,5
1508446638.900173,0.231836,0.120881,0.053085,-0.000562,-0.009525,-0.021962,0.228088,-0.120587,-0.966144,0.021378,0.002530,0.020038,1.371246,-17.275156,-42.824955,,,,,,,5
1508446638.920205,0.231611,0.120736,0.052489,-0.004790,-0.019136,-0.036911,0.227874,-0.120443,-0.966213,0.032166,0.000509,0.018001,1.398969,-17.274784,-42.824211,,,,,,,5
1508446638.940206,0.232698,0.119985,0.051389,-0.048392,-0.022397,-0.066022,0.228946,-0.119697,-0.966052,0.051343,-0.001900,0.013522,1.458872,-17.269510,-42.824341,,,,,,,5
1508446638.960203,0.232146,0.117824,0.049989,-0.110092,-0.057730,-0.109215,0.228471,-0.117551,-0.966428,0.077818,-0.015841,0.001874,1.463777,-17.196600,-42.853504,,,,,,,5
1508446638.980237,0.229222,0.114990,0.048006,-0.107826,-0.229930,-0.138075,0.225719,-0.114737,-0.967412,0.091236,-0.014902,-0.011470,1.406966,-17.093679,-42.896561,,,,,,,5
1508446639.000248,0.222554,0.113008,0.045474,-0.041711,-0.410582,-0.144054,0.219314,-0.112767,-0.969116,0.087770,-0.003474,-0.013657,1.321574,-17.048450,-42.917271,,,,,,,5
1508446639.020260,0.213691,0.111314,0.043028,0.021065,-0.457229,-0.107371,0.210756,-0.111084,-0.971207,-0.001344,0.035126,0.004013,0.863214,-16.998051,-42.948917,,,,,,,5
1508446639.040272,0.205577,0.112302,0.041295,0.093342,-0.378481,-0.057736,0.202847,-0.112066,-0.972777,-0.070538,0.027075,0.018385,0.600545,-16.976309,-42.961990,,,,,,,5
1508446639.060280,0.200065,0.114275,0.039705,0.109246,-0.219164,-0.064938,0.197437,-0.114026,-0.973661,-0.068882,-0.010226,0.016752,0.311231,-17.059870,-42.931953,,,,,,,5
1508446639.080292,0.197831,0.115030,0.037904,0.008068,-0.073663,-0.091217,0.195244,-0.114776,-0.974015,-0.027428,-0.045029,-0.000060,0.148557,-17.153437,-42.895523,,,,,,,5
1508446639.100294,0.197237,0.113020,0.035950,-0.125006,-0.036697,-0.129625,0.194711,-0.112779,-0.974355,0.022300,-0.031157,-0.005106,0.141689,-17.113464,-42.911507,,,,,,,5
1508446639.120312,0.195925,0.109283,0.033682,-0.169643,-0.114311,-0.154541,0.193513,-0.109065,-0.975017,0.034133,-0.025212,0.000362,0.141689,-17.113464,-42.911507,,,,,,,5
1508446639.140325,0.192532,0.105560,0.031054,-0.145074,-0.218488,-0.170388,0.190279,-0.105364,-0.976060,0.046079,0.011049,0.003617,0.110377,-16.911297,-42.991676,,,,,,,5
1508446639.160335,0.188001,0.102712,0.028023,-0.088620,-0.252521,-0.173142,0.185911,-0.102532,-0.977202,0.014040,0.040230,0.014876,-0.084896,-16.735321,-43.060539,,,,,,,5
1508446639.180345,0.182561,0.101382,0.025164,-0.009865,-0.308738,-0.136334,0.180616,-0.101208,-0.978333,0.002673,0.034955,0.005264,-0.084896,-16.735321,-43.060539,,,,,,,5
1508446639.200358,0.176280,0.101379,0.022786,0.031618,-0.327779,-0.107257,0.174468,-0.101206,-0.979448,-0.004958,-0.003241,0.001711,-0.501324,-16.695255,-43.073261,,,,,,,5
1508446639.220367,0.170478,0.101298,0.020618,-0.004604,-0.277839,-0.109648,0.168783,-0.101125,-0.980452,0.003534,-0.019496,0.003264,-0.735883,-16.716932,-43.061478,,,,,,,5
1508446639.240366,0.165876,0.099901,0.018498,-0.079145,-0.223656,-0.119805,0.164293,-0.099735,-0.981357,0.013869,-0.037030,-0.001843,-0.876595,-16.703617,-43.064014,,,,,,,5
1508446639.260372,0.161658,0.097172,0.016421,-0.136649,-0.224877,-0.128876,0.160195,-0.097019,-0.982306,0.025702,-0.030972,-0.001413,-1.066767,-16.604078,-43.098198,,,,,,,5
1508446639.280399,0.156844,0.093750,0.014195,-0.154703,-0.272718,-0.141838,0.155516,-0.093613,-0.983388,0.032640,-0.022399,-0.004329,-1.185328,-16.512844,-43.130146,,,,,,,5
1508446639.300387,0.150816,0.090513,0.011623,-0.128024,-0.336527,-0.157637,0.149630,-0.090389,-0.984602,0.033796,0.008220,-0.001970,-1.380397,-16.386181,-43.172626,,,,,,,5
1508446639.320422,0.143661,0.088065,0.008716,-0.080079,-0.386495,-0.161538,0.142612,-0.087951,-0.985863,0.001660,0.031066,0.015343,-1.694484,-16.265951,-43.206898,,,,,,,5
1508446639.340431,0.135596,0.085539,0.005840,-0.039642,-0.388600,-0.149494,0.134686,-0.085435,-0.987198,-0.011807,0.025911,0.024094,-1.983313,-16.216295,-43.213268,,,,,,,5
1508446639.360442,0.128430,0.084549,0.003107,-0.030092,-0.363067,-0.137684,0.127620,-0.084448,-0.988221,-0.005153,0.013236,0.020417,-2.142530,-16.159428,-43.226971,,,,,,,5
1508446639.380453,0.121301,0.083255,0.000351,-0.062007,-0.375840,-0.149669,0.120585,-0.083158,-0.989214,0.025320,-0.013537,-0.012556,-2.548961,-16.122530,-43.218689,,,,,,,5
1508446639.400445,0.114882,0.082183,-0.002564,-0.077964,-0.422548,-0.143448,0.114243,-0.082090,-0.990056,0.034271,-0.016787,0.000538,-2.762304,-16.085594,-43.219341,,,,,,,5
1508446639.420474,0.106352,0.080508,-0.005160,-0.064126,-0.438467,-0.136957,0.105808,-0.080421,-0.991129,0.030392,-0.004800,0.022913,-3.023058,-16.061243,-43.210945,,,,,,,5
1508446639.440486,0.097766,0.078860,-0.007771,-0.074767,-0.442719,-0.139178,0.097307,-0.078779,-0.992132,0.013075,0.004621,0.014989,-3.442178,-16.000492,-43.202129,,,,,,,5
1508446639.460496,0.089099,0.076517,-0.010392,-0.092858,-0.449098,-0.143591,0.088721,-0.076443,-0.993119,-0.003897,0.010677,0.025483,-3.779300,-15.924250,-43.202122,,,,,,,5
1508446639.480506,0.081016,0.074314,-0.013503,-0.100283,-0.397147,-0.174491,0.080704,-0.074246,-0.993969,0.007781,0.007168,0.012020,-3.779300,-15.924250,-43.202122,,,,,,,5
1508446639.500518,0.073430,0.071893,-0.016745,-0.101351,-0.442773,-0.159628,0.073175,-0.071831,-0.994729,0.026313,-0.001793,-0.014777,-4.220801,-15.814126,-43.201694,,,,,,,5
1508446639.520528,0.064779,0.070192,-0.019635,-0.057694,-0.507535,-0.142281,0.064574,-0.070134,-0.995445,0.023469,-0.000911,0.010887,-4.732815,-15.713419,-43.185383,,,,,,,5
1508446639.540538,0.054626,0.069509,-0.022330,-0.014056,-0.516014,-0.130215,0.054467,-0.069453,-0.996097,0.016441,-0.005864,0.014515,-4.732815,-15.713419,-43.185383,,,,,,,5
1508446639.560543,0.044520,0.069313,-0.024762,-0.032190,-0.462875,-0.126065,0.044398,-0.069258,-0.996610,-0.011394,-0.007906,0.008772,-5.485265,-15.696647,-43.102383,,,,,,,5
1508446639.580561,0.036232,0.067880,-0.027417,-0.083302,-0.401286,-0.141347,0.036141,-0.067828,-0.997042,-0.013863,-0.006269,0.001330,-5.846983,-15.680277,-43.060772,,,,,,,5
1508446639.600546,0.028700,0.066054,-0.030156,-0.080125,-0.384271,-0.135984,0.028634,-0.066006,-0.997408,-0.020852,0.001125,-0.002546,-6.067214,-15.636606,-43.046185,,,,,,,5
1508446639.620583,0.021079,0.065024,-0.032804,-0.026889,-0.388543,-0.134483,0.021032,-0.064978,-0.997665,-0.017660,0.007910,0.004074,-6.431439,-15.585608,-43.011787,,,,,,,5
1508446639.640593,0.013550,0.064817,-0.035536,-0.000268,-0.385377,-0.136390,0.013522,-0.064771,-0.997809,-0.013873,0.008497,0.006170,-6.649303,-15.587280,-42.978039,,,,,,,5
1508446639.660602,0.006333,0.064816,-0.038233,0.001845,-0.356690,-0.135286,0.006320,-0.064771,-0.997880,-0.024661,0.004423,0.018022,-6.934530,-15.605013,-42.926498,,,,,,,5
1508446639.680615,0.000001,0.064690,-0.040968,-0.012022,-0.309937,-0.134301,0.000001,-0.064645,-0.997908,-0.027314,-0.002112,0.011733,-7.248977,-15.627504,-42.866325,,,,,,,5
1508446639.700625,-0.005686,0.064242,-0.043316,-0.028053,-0.285398,-0.106731,-0.005675,-0.064198,-0.997921,-0.027925,-0.005733,0.013027,-7.412641,-15.630829,-42.837112,,,,,,,5
1508446639.720631,-0.011410,0.063612,-0.045260,-0.038717,-0.293850,-0.095113,-0.011386,-0.063569,-0.997912,-0.026959,-0.006331,0.005466,-7.572607,-15.625255,-42.811157,,,,,,,5
1508446639.740648,-0.016919,0.062589,-0.047253,-0.058946,-0.273677,-0.101654,-0.016885,-0.062548,-0.997899,-0.010169,-0.003386,-0.001826,-7.898107,-15.593863,-42.763767,,,,,,,5
1508446639.760644,-0.023561,0.062005,-0.049146,-0.033415,-0.238626,-0.098222,-0.023514,-0.061965,-0.997801,-0.012558,-0.003510,0.002959,-8.165036,-15.576998,-42.719757,,,,,,,5
1508446639.780668,-0.028582,0.061802,-0.051005,-0.002562,-0.202513,-0.094745,-0.028524,-0.061762,-0.997683,-0.014582,0.000803,0.006274,-8.248384,-15.573009,-42.705196,,,,,,,5
1508446639.800680,-0.033737,0.061775,-0.052758,0.000615,-0.187627,-0.089384,-0.033666,-0.061736,-0.997525,-0.027445,0.002028,0.001721,-8.563029,-15.585915,-42.638508,,,,,,,5
1508446639.820690,-0.040820,0.061993,-0.054229,-0.000465,-0.179116,-0.082997,-0.040730,-0.061954,-0.997248,-0.023906,-0.001416,0.005197,-8.798240,-15.603390,-42.584190,,,,,,,5
1508446639.840700,-0.045196,0.062186,-0.055858,0.001664,-0.175936,-0.084041,-0.045094,-0.062146,-0.997048,-0.019756,-0.001865,0.003914,-8.798240,-15.603390,-42.584190,,,,,,,5
1508446639.860714,-0.050093,0.062698,-0.057352,-0.004748,-0.155723,-0.075560,-0.049974,-0.062657,-0.996783,-0.020034,-0.005580,0.004809,-9.106691,-15.642712,-42.504845,,,,,,,5
1508446639.880722,-0.054188,0.062857,-0.058581,-0.004777,-0.149300,-0.060649,-0.054055,-0.062816,-0.996560,-0.026237,-0.004704,0.004312,-9.362878,-15.675821,-42.436932,,,,,,,5
1508446639.900733,-0.058036,0.063196,-0.059601,0.005839,-0.107856,-0.054141,-0.057888,-0.063154,-0.996324,-0.032566,-0.004854,0.019013,-9.415329,-15.679839,-42.423843,,,,,,,5
1508446639.920741,-0.062702,0.063951,-0.060479,0.002620,-0.050505,-0.056253,-0.062532,-0.063908,-0.995995,-0.021986,-0.004207,0.008721,-9.682892,-15.727609,-42.345867,,,,,,,5
1508446639.940756,-0.063833,0.063988,-0.061462,-0.018710,-0.012219,-0.046817,-0.063660,-0.063945,-0.995921,-0.019425,-0.004567,0.003520,-9.682892,-15.727609,-42.345867,,,,,,,5
1508446639.960745,-0.064672,0.063671,-0.062192,-0.020866,-0.011105,-0.031928,-0.064496,-0.063628,-0.995887,-0.019306,-0.002687,0.003395,-9.786930,-15.744242,-42.315754,,,,,,,5
1508446639.980770,-0.066048,0.063354,-0.062740,-0.001701,-0.022792,-0.028584,-0.065868,-0.063312,-0.995818,-0.010136,0.001560,0.013548,-9.818663,-15.728539,-42.314243,,,,,,,5
1508446640.000786,-0.066330,0.063417,-0.063309,0.001484,-0.008979,-0.027482,-0.066148,-0.063374,-0.995795,-0.006285,0.002293,0.013968,-9.842148,-15.731229,-42.307789,,,,,,,5
1508446640.020773,-0.066038,0.063559,-0.063778,-0.014538,0.015268,-0.019198,-0.065857,-0.063516,-0.995805,0.003678,-0.006720,0.005068,-9.840601,-15.736057,-42.306355,,,,,,,5
1508446640.040808,-0.064254,0.063386,-0.064117,-0.022015,0.025937,-0.008604,-0.064081,-0.063344,-0.995932,0.021097,-0.002208,-0.000161,-9.782006,-15.739774,-42.318558,,,,,,,5
1508446640.060819,-0.063558,0.062899,-0.064407,-0.026261,0.034404,-0.018216,-0.063390,-0.062858,-0.996007,0.030095,0.003715,-0.001612,-9.729170,-15.729673,-42.334488,,,,,,,5
1508446640.080829,-0.061959,0.062233,-0.064934,-0.024110,-0.001720,-0.020355,-0.061800,-0.062193,-0.996149,0.035204,0.006102,-0.007391,-9.704223,-15.715591,-42.345444,,,,,,,5
1508446640.100840,-0.062112,0.061971,-0.064973,-0.006052,-0.009072,0.006407,-0.061953,-0.061931,-0.996156,0.031649,0.003887,0.002091,-9.641205,-15.686116,-42.370762,,,,,,,5
1508446640.120843,-0.062298,0.062027,-0.064994,0.004615,-0.008056,-0.005216,-0.062138,-0.061987,-0.996141,0.023320,0.004889,0.008561,-9.647971,-15.684736,-42.369732,,,,,,,5
1508446640.140861,-0.061037,0.062258,-0.065247,-0.014551,0.002574,-0.007496,-0.060881,-0.062218,-0.996204,0.018629,-0.005806,0.003681,-9.625293,-15.692905,-42.371864,,,,,,,5
1508446640.160873,-0.060321,0.061858,-0.065394,-0.029468,0.002606,-0.001231,-0.060169,-0.061819,-0.996272,0.018741,0.001028,0.005427,-9.562990,-15.688816,-42.387482,,,,,,,5
1508446640.180883,-0.059054,0.061124,-0.065484,-0.008175,0.004723,-0.001054,-0.058909,-0.061086,-0.996393,0.016490,0.007573,0.007959,-9.533990,-15.666829,-42.402142,,,,,,,5
1508446640.200894,-0.058332,0.060776,-0.065533,0.001406,0.006845,-0.000973,-0.058191,-0.060738,-0.996456,0.016901,0.010674,0.003765,-9.506819,-15.651438,-42.413925,,,,,,,5
1508446640.220906,-0.056175,0.059940,-0.065500,-0.007135,0.007959,0.010669,-0.056044,-0.059905,-0.996630,0.019576,0.006621,-0.001143,-9.414718,-15.611988,-42.448994,,,,,,,5
1508446640.240916,-0.055065,0.059509,-0.065549,-0.011363,0.000472,-0.005343,-0.054939,-0.059474,-0.996717,0.017342,0.003154,0.003736,-9.362741,-15.588737,-42.469032,,,,,,,5
1508446640.260927,-0.054387,0.059276,-0.065772,-0.008164,0.005769,-0.009572,-0.054265,-0.059241,-0.996768,0.020833,0.002387,0.005526,-9.362741,-15.588737,-42.469032,,,,,,,5
1508446640.280941,-0.051919,0.059027,-0.066139,-0.014553,0.014271,-0.011748,-0.051805,-0.058993,-0.996913,0.025606,0.000216,-0.001073,-9.234133,-15.568944,-42.504433,,,,,,,5
1508446640.300948,-0.051594,0.058528,-0.066146,-0.030558,0.012225,0.008348,-0.051483,-0.058494,-0.996959,0.029480,-0.001457,-0.002705,-9.186914,-15.551847,-42.520924,,,,,,,5
1508446640.320944,-0.051144,0.057930,-0.066024,-0.013514,-0.007963,0.009538,-0.051036,-0.057898,-0.997017,0.015865,0.004111,0.003578,-9.184143,-15.538532,-42.526386,,,,,,,5
1508446640.340963,-0.051729,0.058018,-0.065823,0.022702,-0.028176,0.006628,-0.051619,-0.057985,-0.996982,-0.003328,0.001726,0.010608,-9.183527,-15.517632,-42.534149,,,,,,,5
1508446640.360980,-0.052140,0.058477,-0.065612,0.020553,-0.011155,0.013012,-0.052028,-0.058444,-0.996934,-0.001271,-0.005841,0.008317,-9.207197,-15.530749,-42.524246,,,,,,,5
1508446640.380979,-0.051817,0.059383,-0.065277,0.005631,0.005870,0.018225,-0.051702,-0.059348,-0.996898,0.006277,-0.009866,0.006404,-9.212160,-15.560514,-42.512287,,,,,,,5
1508446640.401002,-0.051152,0.059605,-0.064965,-0.003946,0.011173,0.013891,-0.051039,-0.059570,-0.996918,0.010145,-0.002000,0.002671,-9.194975,-15.581542,-42.508308,,,,,,,5
1508446640.421013,-0.050947,0.059440,-0.064748,-0.009262,0.010098,0.009587,-0.050835,-0.059405,-0.996939,0.008766,0.001010,0.003881,-9.178121,-15.578749,-42.512978,,,,,,,5
1508446640.441022,-0.050256,0.059135,-0.064630,-0.007130,0.011154,0.007476,-0.050147,-0.059101,-0.996992,0.007407,0.002719,0.002271,-9.173162,-15.572247,-42.516426,,,,,,,5
1508446640.461034,-0.049471,0.058992,-0.064608,-0.002861,0.014318,0.001125,-0.049365,-0.058958,-0.997039,0.007953,0.001463,0.001312,-9.127460,-15.556482,-42.532032,,,,,,,5
1508446640.481040,-0.048868,0.058930,-0.064580,-0.000736,0.014326,0.003272,-0.048764,-0.058896,-0.997072,0.005139,0.000485,0.004351,-9.091868,-15.551618,-42.541431,,,,,,,5
1508446640.501055,-0.048550,0.058927,-0.064483,0.000326,0.016454,0.004347,-0.048447,-0.058893,-0.997088,0.006928,0.003015,0.006487,-9.085766,-15.550682,-42.543076,,,,,,,5
1508446640.521067,-0.047808,0.058869,-0.064486,-0.003925,0.019626,-0.001009,-0.047707,-0.058835,-0.997127,0.014321,0.000867,0.001323,-9.049496,-15.548809,-42.551491,,,,,,,5
1508446640.541077,-0.045970,0.058847,-0.064614,-0.008175,0.010064,-0.003181,-0.045874,-0.058813,-0.997214,0.017584,-0.000803,-0.001016,-8.989889,-15.548428,-42.564262,,,,,,,5
1508446640.561088,-0.045468,0.058720,-0.064721,-0.002842,-0.004813,-0.004213,-0.045374,-0.058686,-0.997245,0.016459,0.000444,0.002021,-8.989889,-15.548428,-42.564262,,,,,,,5
1508446640.581099,-0.044674,0.058655,-0.064905,-0.006030,-0.005882,-0.007435,-0.044583,-0.058621,-0.997284,0.015408,-0.000278,0.004197,-8.922032,-15.542343,-42.580761,,,,,,,5
1508446640.601109,-0.044171,0.058573,-0.065090,-0.011355,-0.006936,-0.006415,-0.044081,-0.058539,-0.997311,0.003188,-0.001336,0.003705,-8.885248,-15.539900,-42.589344,,,,,,,5
1508446640.621122,-0.044297,0.058463,-0.065199,-0.001776,-0.010116,-0.003144,-0.044206,-0.058429,-0.997312,0.002123,0.000080,0.006391,-8.883980,-15.537840,-42.590363,,,,,,,5
1508446640.641109,-0.044594,0.058572,-0.065182,0.005668,-0.014346,0.003303,-0.044503,-0.058539,-0.997293,-0.000755,-0.001398,0.005883,-8.894968,-15.536945,-42.588390,,,,,,,5
1508446640.661142,-0.044861,0.058970,-0.065112,0.007798,-0.013285,0.003321,-0.044768,-0.058936,-0.997257,0.002441,-0.005655,0.005635,-8.911112,-15.548114,-42.580940,,,,,,,5
1508446640.681141,-0.044924,0.059272,-0.065033,0.002471,-0.006907,0.003282,-0.044830,-0.059238,-0.997237,0.005158,-0.007413,0.005003,-8.914538,-15.557962,-42.576630,,,,,,,5
1508446640.701137,-0.044579,0.059314,-0.064991,-0.002857,0.002658,0.003245,-0.044485,-0.059279,-0.997250,0.011450,-0.000947,0.002880,-8.915215,-15.569898,-42.572121,,,,,,,5
1508446640.721174,-0.044258,0.058861,-0.064971,-0.012436,-0.010080,0.004221,-0.044167,-0.058827,-0.997291,0.005394,0.005757,0.004035,-8.891421,-15.560531,-42.580521,,,,,,,5
1508446640.741184,-0.044517,0.058304,-0.064886,-0.006043,-0.024952,0.005327,-0.044426,-0.058271,-0.997312,0.002602,0.007093,0.005613,-8.891385,-15.537695,-42.588867,,,,,,,5
1508446640.761196,-0.044821,0.057981,-0.064773,-0.001788,-0.024945,0.007492,-0.044730,-0.057949,-0.997317,0.005500,0.004421,0.005511,-8.914789,-15.517214,-42.591438,,,,,,,5
1508446640.781209,-0.045232,0.057934,-0.064630,-0.000727,-0.017509,0.007506,-0.045141,-0.057901,-0.997301,0.007772,0.000742,0.003634,-8.925523,-15.510081,-42.591789,,,,,,,5
1508446640.801216,-0.044966,0.057971,-0.064416,-0.001811,-0.012161,0.017084,-0.044875,-0.057939,-0.997311,0.010009,-0.001540,-0.001728,-8.930016,-15.509047,-42.591225,,,,,,,5
1508446640.821224,-0.045016,0.058105,-0.063825,0.006681,-0.017420,0.033121,-0.044925,-0.058073,-0.997301,0.001865,-0.001894,-0.002455,-8.931420,-15.508598,-42.591095,,,,,,,5
1508446640.841241,-0.045611,0.058596,-0.063236,0.024799,-0.029137,0.026873,-0.045517,-0.058563,-0.997245,-0.000229,-0.004654,0.002800,-8.935501,-15.510614,-42.589504,,,,,,,5
1508446640.861249,-0.045956,0.059275,-0.062733,0.016295,-0.031279,0.020413,-0.045860,-0.059241,-0.997190,0.012336,-0.008783,0.009641,-8.985487,-15.536135,-42.569683,,,,,,,5
1508446640.881261,-0.046135,0.059529,-0.062502,-0.002853,-0.023873,0.008548,-0.046037,-0.059494,-0.997167,0.010393,0.000458,0.013722,-8.993589,-15.563465,-42.557987,,,,,,,5
1508446640.901271,-0.046451,0.059165,-0.062366,-0.004990,-0.005815,0.007480,-0.046354,-0.059131,-0.997173,-0.003756,0.005298,0.013409,-8.999337,-15.562474,-42.557133,,,,,,,5
1508446640.921281,-0.046581,0.059138,-0.062014,-0.001833,0.006991,0.024551,-0.046483,-0.059103,-0.997169,-0.005763,0.000357,0.001945,-9.016054,-15.545353,-42.559853,,,,,,,5
1508446640.941294,-0.046992,0.058904,-0.061689,-0.008195,0.002695,0.010654,-0.046893,-0.058870,-0.997164,-0.009656,0.000994,-0.000593,-9.035299,-15.537942,-42.558475,,,,,,,5
1508446640.961304,-0.046711,0.058731,-0.061425,0.014153,0.012257,0.014040,-0.046613,-0.058697,-0.997187,0.008009,0.005856,0.008128,-9.048038,-15.523792,-42.560932,,,,,,,5
1508446640.981294,-0.046115,0.059180,-0.061118,0.026929,0.011193,0.015209,-0.046018,-0.059145,-0.997188,0.013806,0.001711,0.006786,-9.048038,-15.523792,-42.560932,,,,,,,5
1508446641.001308,-0.045065,0.059931,-0.060955,0.007773,-0.008179,0.006385,-0.044969,-0.059895,-0.997191,0.009950,-0.009563,0.000838,-8.984590,-15.556572,-42.562405,,,,,,,5
1508446641.021335,-0.045237,0.059975,-0.060904,-0.013510,-0.019864,0.003006,-0.045140,-0.059939,-0.997181,0.007100,-0.007733,0.002598,-8.984373,-15.565195,-42.559303,,,,,,,5
1508446641.041319,-0.045471,0.059967,-0.060834,-0.000737,-0.017738,0.005243,-0.045374,-0.059931,-0.997171,0.007074,-0.006506,0.003915,-8.986211,-15.567390,-42.558109,,,,,,,5
1508446641.061334,-0.045697,0.060316,-0.060663,0.017358,-0.020918,0.009649,-0.045598,-0.060280,-0.997140,0.006566,-0.005333,0.004769,-9.005865,-15.573646,-42.551666,,,,,,,5
1508446641.081368,-0.046198,0.060944,-0.060399,0.020552,-0.026224,0.011801,-0.046095,-0.060906,-0.997079,-0.000032,-0.004035,0.007302,-9.021294,-15.599566,-42.538898,,,,,,,5
1508446641.101378,-0.046661,0.061299,-0.060163,0.005641,-0.012410,0.010623,-0.046556,-0.061260,-0.997035,-0.001722,-0.000095,0.007152,-9.040605,-15.618777,-42.527748,,,,,,,5
1508446641.121363,-0.047009,0.061096,-0.059943,-0.013532,0.002472,0.010476,-0.046904,-0.061058,-0.997032,-0.005906,0.001778,0.003944,-9.061904,-15.616834,-42.523930,,,,,,,5
1508446641.141378,-0.046793,0.060899,-0.059811,-0.007139,0.015195,0.004150,-0.046689,-0.060861,-0.997054,-0.002460,0.001657,0.006316,-9.066441,-15.606306,-42.526829,,,,,,,5
1508446641.161408,-0.046592,0.060832,-0.059798,-0.002869,0.008804,-0.000078,-0.046489,-0.060794,-0.997067,-0.001698,-0.000501,0.003613,-9.058393,-15.601186,-42.530422,,,,,,,5
1508446641.181422,-0.046817,0.061229,-0.059859,0.002470,0.002404,-0.006427,-0.046712,-0.061190,-0.997032,-0.007259,-0.008741,0.008217,-9.053923,-15.605709,-42.529716,,,,,,,5
1508446641.201430,-0.047023,0.061741,-0.060026,0.001412,0.006639,-0.010692,-0.046916,-0.061701,-0.996991,-0.005650,-0.009618,0.011655,-9.061386,-15.616823,-42.524044,,,,,,,5
1508446641.221443,-0.046897,0.061855,-0.060239,-0.011371,0.017272,-0.009725,-0.046790,-0.061816,-0.996990,-0.004861,-0.008314,0.008678,-9.062145,-15.639998,-42.515366,,,,,,,5
1508446641.241455,-0.046502,0.061639,-0.060421,-0.020960,0.022596,-0.007670,-0.046397,-0.061600,-0.997022,-0.001638,-0.001404,0.003522,-9.045831,-15.642495,-42.517921,,,,,,,5
1508446641.261465,-0.046045,0.061104,-0.060541,-0.016706,0.020481,-0.004442,-0.045943,-0.061066,-0.997076,0.000868,0.004456,0.002355,-9.040425,-15.638386,-42.520584,,,,,,,5
1508446641.281454,-0.045638,0.060947,-0.060673,-0.001795,0.022587,-0.007512,-0.045537,-0.060909,-0.997104,0.002508,0.006481,0.004978,-9.015714,-15.613670,-42.534908,,,,,,,5
1508446641.301461,-0.044615,0.060987,-0.060847,0.003526,0.027898,-0.007464,-0.044517,-0.060949,-0.997148,0.010780,0.000417,0.001756,-8.974379,-15.612513,-42.544075,,,,,,,5
1508446641.321497,-0.043592,0.060883,-0.060953,-0.011390,0.020497,-0.000140,-0.043497,-0.060845,-0.997199,0.007700,0.000207,-0.001611,-8.923623,-15.612417,-42.554783,,,,,,,5
1508446641.341482,-0.043312,0.060382,-0.060862,-0.015655,0.002470,0.008329,-0.043220,-0.060345,-0.997241,0.004218,0.005673,-0.001675,-8.907477,-15.605997,-42.560520,,,,,,,5
1508446641.361512,-0.043484,0.060141,-0.060613,0.016282,-0.009213,0.013908,-0.043392,-0.060105,-0.997248,-0.000294,0.011093,0.004908,-8.906674,-15.585512,-42.568195,,,,,,,5
1508446641.381530,-0.043588,0.060825,-0.060274,0.042892,0.000343,0.016264,-0.043494,-0.060788,-0.997203,-0.002084,0.009015,0.002848,-8.916182,-15.586493,-42.565845,,,,,,,5
1508446641.401540,-0.043468,0.061685,-0.059877,0.029037,0.021604,0.018295,-0.043372,-0.061646,-0.997155,-0.004282,-0.003738,0.002206,-8.919088,-15.610806,-42.556328,,,,,,,5
1508446641.421535,-0.042878,0.061773,-0.059574,-0.001833,0.029034,0.011658,-0.042783,-0.061734,-0.997175,0.001569,0.002103,0.003599,-8.904521,-15.641612,-42.548065,,,,,,,5
1508446641.441562,-0.042431,0.061556,-0.059366,-0.002887,0.010971,0.010571,-0.042338,-0.061518,-0.997208,0.002864,0.004145,0.012756,-8.885715,-15.633066,-42.555138,,,,,,,5
1508446641.461569,-0.042295,0.061568,-0.059127,0.004564,0.007788,0.012759,-0.042202,-0.061529,-0.997213,0.001095,0.001501,0.015249,-8.880617,-15.626781,-42.558510,,,,,,,5
1508446641.481584,-0.042046,0.062251,-0.058816,0.004548,0.027988,0.017033,-0.041953,-0.062211,-0.997181,-0.003274,-0.011183,0.005604,-8.871671,-15.638099,-42.556217,,,,,,,5
1508446641.501569,-0.041450,0.062776,-0.058435,0.006663,0.048182,0.020260,-0.041357,-0.062735,-0.997173,-0.007258,-0.013986,0.005077,-8.849816,-15.653927,-42.554947,,,,,,,5
1508446641.521600,-0.040660,0.063377,-0.057989,0.005599,0.049244,0.020252,-0.040567,-0.063334,-0.997168,-0.001089,-0.015142,0.006124,-8.841249,-15.673637,-42.549473,,,,,,,5
1508446641.541591,-0.039420,0.063864,-0.057704,-0.012478,0.036477,0.011575,-0.039329,-0.063821,-0.997186,0.013847,-0.000098,0.002862,-8.793592,-15.708284,-42.546574,,,,,,,5
1508446641.561608,-0.038424,0.063176,-0.057659,-0.038004,0.024761,-0.001421,-0.038338,-0.063134,-0.997268,0.014076,0.002892,0.003143,-8.760255,-15.703609,-42.555176,,,,,,,5
1508446641.581636,-0.037718,0.062243,-0.057808,-0.028415,0.010723,-0.006805,-0.037636,-0.062203,-0.997354,0.012535,0.008263,0.001397,-8.726967,-15.676826,-42.571888,,,,,,,5
1508446641.601649,-0.037385,0.061733,-0.057966,-0.000729,-0.000972,-0.005520,-0.037306,-0.061693,-0.997398,0.005750,0.008074,0.001472,-8.684422,-15.624990,-42.599632,,,,,,,5
1508446641.621658,-0.036965,0.061468,-0.058058,0.012040,0.000097,-0.002220,-0.036887,-0.061429,-0.997430,0.004370,0.003720,0.003823,-8.670559,-15.615795,-42.605827,,,,,,,5
1508446641.641653,-0.036614,0.061546,-0.058051,0.001376,0.019240,0.001965,-0.036536,-0.061507,-0.997438,0.003363,0.002547,0.004380,-8.663847,-15.616714,-42.606853,,,,,,,5
1508446641.661676,-0.035967,0.061115,-0.057989,-0.015664,0.015012,0.005016,-0.035893,-0.061077,-0.997488,0.003574,0.003581,0.003149,-8.643699,-15.614533,-42.611752,,,,,,,5
1508446641.681690,-0.035687,0.060592,-0.057920,-0.014591,-0.003048,0.005011,-0.035614,-0.060555,-0.997529,0.003875,0.003838,0.004701,-8.616090,-15.583120,-42.628838,,,,,,,5
1508446641.701681,-0.035801,0.060335,-0.057805,-0.005007,-0.013668,0.007211,-0.035728,-0.060298,-0.997541,0.004676,0.003169,0.007398,-8.616090,-15.583120,-42.628838,,,,,,,5
1508446641.721693,-0.036293,0.060364,-0.057627,0.002444,-0.014791,0.008274,-0.036219,-0.060328,-0.997521,-0.004888,-0.000936,0.003716,-8.633583,-15.562645,-42.632778,,,,,,,5
1508446641.741724,-0.036591,0.060374,-0.057413,-0.000757,-0.011592,0.011445,-0.036516,-0.060337,-0.997510,-0.006788,-0.003002,0.007718,-8.650654,-15.563944,-42.628841,,,,,,,5
1508446641.761733,-0.036990,0.060533,-0.057152,0.004555,0.004348,0.013630,-0.036914,-0.060496,-0.997486,-0.011975,-0.004583,0.008243,-8.661196,-15.562427,-42.627258,,,,,,,5
1508446641.781716,-0.036880,0.060877,-0.056860,0.006674,0.023472,0.014727,-0.036803,-0.060839,-0.997469,-0.007524,-0.006940,0.004274,-8.672121,-15.571056,-42.621883,,,,,,,5
1508446641.801755,-0.036364,0.061042,-0.056573,-0.002911,0.029851,0.014653,-0.036288,-0.061004,-0.997478,-0.001371,-0.005127,0.001552,-8.662792,-15.580475,-42.620338,,,,,,,5
1508446641.821768,-0.035861,0.061005,-0.056325,-0.006097,0.025592,0.011429,-0.035787,-0.060967,-0.997498,-0.001505,-0.003578,0.000824,-8.653779,-15.583703,-42.620987,,,,,,,5
1508446641.841780,-0.035215,0.060942,-0.056202,-0.000760,0.017074,0.006143,-0.035142,-0.060905,-0.997525,0.007752,0.000587,0.006726,-8.628049,-15.579218,-42.627846,,,,,,,5
1508446641.861784,-0.034741,0.060947,-0.056122,0.002441,0.007508,0.005097,-0.034670,-0.060909,-0.997541,0.009417,0.000790,0.007749,-8.597037,-15.578011,-42.634548,,,,,,,5
1508446641.881800,-0.034424,0.060969,-0.056059,-0.000749,0.005379,0.002940,-0.034353,-0.060931,-0.997551,0.007406,0.000186,0.006935,-8.594999,-15.578433,-42.634808,,,,,,,5
1508446641.901803,-0.034275,0.061039,-0.055990,-0.002875,0.005373,0.003929,-0.034204,-0.061001,-0.997552,-0.000006,-0.003589,0.003884,-8.578431,-15.582101,-42.636799,,,,,,,5
1508446641.921807,-0.034226,0.061099,-0.055953,-0.000745,0.011739,0.001822,-0.034156,-0.061061,-0.997549,-0.003427,-0.002065,0.006201,-8.578334,-15.583852,-42.636185,,,,,,,5
1508446641.941817,-0.033879,0.061015,-0.055963,-0.007131,0.021288,-0.002483,-0.033810,-0.060977,-0.997566,-0.000568,-0.004483,0.005821,-8.573301,-15.583198,-42.637436,,,,,,,5
1508446641.961828,-0.033603,0.060886,-0.056034,-0.011390,0.032965,-0.005703,-0.033534,-0.060849,-0.997584,-0.005757,0.000134,0.005106,-8.561058,-15.581385,-42.640556,,,,,,,5
1508446641.981835,-0.032968,0.060643,-0.056207,-0.008192,0.044630,-0.010992,-0.032901,-0.060606,-0.997619,-0.006161,0.001356,-0.000580,-8.531223,-15.570848,-42.650379,,,,,,,5
1508446642.001843,-0.032057,0.060525,-0.056409,0.005639,0.056316,-0.008739,-0.031993,-0.060488,-0.997656,-0.004277,0.003496,0.000921,-8.497148,-15.564911,-42.659355,,,,,,,5
1508446642.021871,-0.030793,0.060601,-0.056497,0.020529,0.065892,-0.002221,-0.030732,-0.060564,-0.997691,0.001374,0.003191,-0.000371,-8.439190,-15.565653,-42.670586,,,,,,,5
1508446642.041885,-0.029658,0.061008,-0.056369,0.021579,0.062747,0.010515,-0.029598,-0.060970,-0.997701,-0.003620,0.000362,0.003087,-8.383999,-15.578648,-42.676720,,,,,,,5
1508446642.061880,-0.028525,0.061420,-0.056048,0.017309,0.062771,0.016868,-0.028467,-0.061381,-0.997708,-0.003241,-0.001469,0.005429,-8.363867,-15.586256,-42.677895,,,,,,,5
1508446642.081901,-0.027330,0.062273,-0.055673,0.015175,0.060663,0.021108,-0.027274,-0.062233,-0.997689,-0.000299,-0.006355,0.004281,-8.296106,-15.621823,-42.678116,,,,,,,5
1508446642.101917,-0.026383,0.062467,-0.055149,0.009848,0.040507,0.028502,-0.026328,-0.062426,-0.997702,-0.002358,-0.004148,0.000449,-8.265401,-15.634478,-42.679440,,,,,,,5
1508446642.121916,-0.025988,0.062833,-0.054466,0.017300,0.021404,0.034938,-0.025934,-0.062791,-0.997690,-0.005072,-0.003630,0.003457,-8.245774,-15.637665,-42.682068,,,,,,,5
1508446642.141941,-0.026667,0.063441,-0.053687,0.019432,0.011847,0.037078,-0.026611,-0.063399,-0.997633,-0.018052,-0.003190,0.001891,-8.258806,-15.661447,-42.670826,,,,,,,5
1508446642.161950,-0.026382,0.063744,-0.052856,0.015156,0.023557,0.043440,-0.026325,-0.063701,-0.997622,-0.023540,-0.005223,0.007189,-8.282405,-15.672113,-42.662338,,,,,,,5
1508446642.181961,-0.026498,0.064182,-0.051833,0.024714,0.042702,0.052051,-0.026440,-0.064138,-0.997591,-0.025897,-0.000987,0.008135,-8.307826,-15.681028,-42.654118,,,,,,,5
1508446642.201973,-0.026758,0.064890,-0.050608,0.037485,0.054394,0.056376,-0.026699,-0.064844,-0.997538,-0.015354,-0.001226,0.012583,-8.311585,-15.699780,-42.646484,,,,,,,5
1508446642.221978,-0.025791,0.065806,-0.049511,0.038550,0.066067,0.053200,-0.025732,-0.065759,-0.997504,-0.007791,-0.003974,0.005804,-8.307495,-15.720980,-42.639473,,,,,,,5
1508446642.241993,-0.024475,0.066348,-0.048476,0.010875,0.073495,0.046588,-0.024419,-0.066299,-0.997501,-0.002803,-0.005035,0.004016,-8.277817,-15.753469,-42.633255,,,,,,,5
1508446642.262005,-0.022900,0.066635,-0.047699,0.006637,0.073457,0.034841,-0.022847,-0.066586,-0.997519,0.004048,-0.006229,0.004202,-8.210013,-15.761932,-42.643234,,,,,,,5
1508446642.282006,-0.021370,0.066961,-0.047202,0.011991,0.073396,0.017849,-0.021320,-0.066911,-0.997531,0.003437,-0.003599,0.013827,-8.152388,-15.770472,-42.651134,,,,,,,5
1508446642.302025,-0.019722,0.067104,-0.047108,-0.001828,0.087153,0.000710,-0.019677,-0.067054,-0.997555,0.002816,-0.004647,0.011822,-8.122396,-15.774440,-42.655384,,,,,,,5
