timestamp(unix),attitude_roll(radians),attitude_pitch(radians),attitude_yaw(radians),rotation_rate_x(radians/s),rotation_rate_y(radians/s),rotation_rate_z(radians/s),gravity_x(G),gravity_y(G),gravity_z(G),user_acc_x(G),user_acc_y(G),user_acc_z(G),magnetic_field_x(microteslas),magnetic_field_y(microteslas),magnetic_field_z(microteslas),latitude(degree),longitude(degree),altitude(meter),speed(m/s),course(degree),timestamp(unix),User Mark
1508446884.867226,-0.314517,1.430423,-0.958740,0.348534,-0.363191,-0.087530,-0.043283,-0.990164,-0.133049,-0.003760,0.138205,0.053871,1.715559,-30.477354,10.562353,,,,,,,5
1508446884.887236,-0.315824,1.433443,-0.962202,0.126806,-0.145003,-0.004018,-0.042528,-0.990582,-0.130150,0.019487,0.008236,-0.045051,1.831297,-30.408298,10.740452,,,,,,,5
,,,,,,,,,,,,,,,,42.293365,-71.264182,60.396637,-1.000000,-1.000000,1508446877.359797,5
1508446884.907250,-0.324571,1.435079,-0.955291,0.103319,-0.116211,0.023493,-0.043148,-0.990804,-0.128237,-0.033833,0.001684,-0.055311,1.879547,-30.393360,10.774344,,,,,,,5
,,,,,,,,,,,,,,,,42.293355,-71.264180,60.396637,-1.000000,-1.000000,1508446867.681722,5
1508446884.927248,-0.349672,1.435851,-0.934289,0.175875,-0.248164,-0.029236,-0.046091,-0.990909,-0.126394,-0.072241,0.012103,-0.038965,1.882244,-30.388008,10.788958,,,,,,,5
,,,,,,,,,,,,,,,,42.293365,-71.264182,60.396637,-1.000000,-1.000000,1508446877.359797,5
1508446884.947271,-0.356782,1.439342,-0.931864,0.154593,-0.195115,-0.051731,-0.045780,-0.991372,-0.122822,-0.053708,0.021676,-0.042446,1.895476,-30.354467,10.880670,,,,,,,5
1508446884.967285,-0.359179,1.439581,-0.931294,0.094920,-0.037938,-0.074460,-0.045991,-0.991404,-0.122490,-0.035995,0.010431,-0.056785,1.933830,-30.335957,10.925449,,,,,,,5
1508446884.987295,-0.350519,1.441935,-0.940371,0.091775,-0.015746,-0.108541,-0.044127,-0.991709,-0.120691,-0.027940,0.012186,-0.034155,1.982810,-30.321793,10.955954,,,,,,,5
1508446885.007306,-0.339660,1.444418,-0.951665,0.091595,-0.010526,-0.101075,-0.041993,-0.992025,-0.118841,-0.034759,0.046056,-0.018656,2.052985,-30.297091,11.011221,,,,,,,5
1508446885.027320,-0.344496,1.444890,-0.947038,0.123478,-0.003005,-0.072051,-0.042409,-0.992084,-0.118196,-0.076304,0.037281,-0.056425,2.066299,-30.286123,11.038869,,,,,,,5
,,,,,,,,,,,,,,,,42.293360,-71.264178,60.396637,-1.000000,-1.000000,1508446885.009098,5
1508446885.047331,-0.338629,1.448422,-0.953184,0.173607,-0.015938,-0.117431,-0.040551,-0.992522,-0.115137,-0.103507,0.018858,-0.053854,2.102720,-30.261236,11.100071,,,,,,,5
,,,,,,,,,,,,,,,,42.293346,-71.264172,60.396637,-1.000000,-1.000000,1508446885.018819,5
1508446885.067327,-0.347841,1.451153,-0.944053,0.224792,0.034810,-0.178714,-0.040686,-0.992851,-0.112210,-0.075724,0.012794,-0.006976,2.085906,-30.235886,11.172095,,,,,,,5
,,,,,,,,,,,,,,,,42.293331,-71.264167,60.396637,-1.000000,-1.000000,1508446885.056924,5
1508446885.087347,-0.328799,1.457391,-0.962044,0.285534,0.060146,-0.215459,-0.036541,-0.993577,-0.107100,-0.044010,0.032258,0.040984,2.215183,-30.158787,11.354118,,,,,,,5
,,,,,,,,,,,,,,,,42.293317,-71.264161,60.396637,-1.000000,-1.000000,1508446885.065541,5
1508446885.107365,-0.323833,1.466312,-0.966323,0.371844,0.033446,-0.242446,-0.033187,-0.994547,-0.098873,-0.038850,0.032846,0.044308,2.305583,-30.099117,11.493604,,,,,,,5
1508446885.127380,-0.298355,1.476254,-0.991526,0.475220,0.018343,-0.292711,-0.027749,-0.995534,-0.090231,-0.003089,0.022542,0.056661,2.371844,-30.010803,11.709038,,,,,,,5
1508446885.147375,-0.260684,1.488609,-1.029827,0.585965,-0.074461,-0.356801,-0.021159,-0.996625,-0.079321,0.067470,0.024899,0.087332,2.640114,-29.812485,12.149940,,,,,,,5
1508446885.167402,-0.201354,1.503121,-1.093405,0.684124,-0.268068,-0.416827,-0.013524,-0.997711,-0.066257,0.091924,0.031341,0.065235,2.831037,-29.683876,12.418865,,,,,,,5
1508446885.187411,-0.113541,1.518434,-1.187753,0.716010,-0.331648,-0.366569,-0.005930,-0.998629,-0.052002,0.121317,0.028750,-0.002487,3.146762,-29.485004,12.810456,,,,,,,5
1508446885.207415,-0.028315,1.533033,-1.280686,0.715764,-0.428794,-0.198415,-0.001069,-0.999287,-0.037739,0.012269,0.025517,-0.119518,3.496925,-29.225494,13.304791,,,,,,,5
1508446885.227436,0.076022,1.547873,-1.395340,0.759398,-0.566740,-0.147052,0.001741,-0.999737,-0.022855,-0.033357,0.033993,-0.148532,3.666898,-29.069147,13.598308,,,,,,,5
1508446885.247446,0.581273,1.561558,-1.913753,0.748909,-0.692280,-0.201535,0.005073,-0.999957,-0.007721,-0.205848,0.014392,-0.164551,3.918681,-28.847803,13.993701,,,,,,,5
,,,,,,,,,,,,,,,,42.293346,-71.264133,61.333225,-1.000000,-1.000000,1508446885.221485,5
1508446885.267461,2.116855,1.558860,2.820119,0.662802,-0.659610,-0.289530,0.010200,-0.999929,0.006199,-0.241462,-0.047450,-0.187763,4.324533,-28.565136,14.446693,,,,,,,5
1508446885.287447,2.372594,1.546663,2.553627,0.493472,-0.436584,-0.333349,0.016781,-0.999709,0.017341,-0.214901,-0.104432,-0.240852,4.413661,-28.510778,14.526891,,,,,,,5
1508446885.307464,2.395721,1.537312,2.525652,0.307911,-0.135555,-0.250538,0.022719,-0.999439,0.024590,-0.206358,-0.116710,-0.269951,4.826700,-28.275463,14.851821,,,,,,,5
1508446885.327496,2.437920,1.531561,2.481756,0.248960,-0.098660,-0.038048,0.025379,-0.999230,0.029908,-0.261997,-0.109672,-0.350815,5.077069,-28.103682,15.092449,,,,,,,5
1508446885.347505,2.542714,1.531672,2.375121,-0.023150,-0.059113,0.293001,0.022049,-0.999235,0.032307,-0.392777,-0.176409,-0.417652,5.089872,-28.083897,15.124926,,,,,,,5
1508446885.367517,2.505213,1.543300,2.414845,-0.781259,0.405081,0.165713,0.016339,-0.999622,0.022111,-0.391537,-0.138043,-0.279878,4.931515,-28.129391,15.092812,,,,,,,5
1508446885.387531,1.730438,1.551090,-3.067375,-1.072812,1.703855,-0.312717,0.019455,-0.999806,0.003132,0.011978,-0.098201,0.055858,4.624279,-28.444763,14.590647,,,,,,,5
1508446885.407523,0.868469,1.537680,-2.172680,-1.301766,1.471625,-0.227473,0.025275,-0.999452,-0.021389,0.218759,-0.089644,0.075787,4.387293,-28.676136,14.205859,,,,,,,5
1508446885.427551,0.629983,1.518519,-1.910489,-0.912836,0.979458,-0.256577,0.030784,-0.998634,-0.042223,0.350060,-0.011544,-0.071180,4.128366,-29.002790,13.607726,,,,,,,5
1508446885.447546,0.564323,1.505396,-1.830285,-0.538169,0.568796,-0.068530,0.034954,-0.997862,-0.055221,0.385120,0.151167,-0.112947,3.999249,-29.253456,13.100258,,,,,,,5
1508446885.467576,0.460048,1.501474,-1.721788,-0.253306,-0.050159,0.388000,0.030754,-0.997598,-0.062065,0.322960,0.179498,0.005623,3.894214,-29.345497,12.924878,,,,,,,5
1508446885.487571,0.314919,1.502296,-1.584203,-0.096588,-0.539887,0.413412,0.021201,-0.997655,-0.065080,0.087518,0.169835,0.187135,3.688952,-29.435093,12.780547,,,,,,,5
1508446885.507600,0.221243,1.500701,-1.501867,-0.222884,-0.558677,0.185565,0.015369,-0.997544,-0.068331,-0.092075,0.036180,0.002474,3.612447,-29.504168,12.642384,,,,,,,5
1508446885.527611,0.127849,1.493027,-1.417614,-0.563908,-0.380657,0.308524,0.009906,-0.996978,-0.077057,-0.152819,-0.017671,-0.105850,3.627007,-29.571674,12.479439,,,,,,,5
1508446885.547622,0.020520,1.478688,-1.310642,-0.832717,0.242375,0.412186,0.001887,-0.995761,-0.091959,-0.223475,-0.043927,-0.202810,3.507224,-29.743546,12.099436,,,,,,,5
1508446885.567635,-0.016412,1.460895,-1.257685,-0.911481,1.044683,0.167252,-0.001800,-0.993967,-0.109666,-0.103242,0.006952,-0.075683,3.109418,-30.023975,11.500780,,,,,,,5
1508446885.587648,-0.001005,1.441784,-1.249679,-0.976219,1.179076,0.008172,-0.000129,-0.991689,-0.128655,-0.048699,0.030477,-0.040230,2.867720,-30.187038,11.130790,,,,,,,5
1508446885.607658,0.023905,1.422410,-1.253848,-0.946147,0.906858,-0.062059,0.003534,-0.989011,-0.147800,0.083167,0.118436,-0.057888,2.618108,-30.398983,10.602963,,,,,,,5
1508446885.627671,0.044409,1.404976,-1.262224,-0.814851,0.440226,-0.118824,0.007328,-0.986283,-0.164899,0.135433,0.146501,-0.048343,2.473204,-30.629375,9.954906,,,,,,,5
1508446885.647677,0.061947,1.390587,-1.274391,-0.646476,0.239268,-0.144205,0.011096,-0.983806,-0.178891,0.130353,0.169307,-0.005114,2.469630,-30.668238,9.835427,,,,,,,5
1508446885.667693,0.074686,1.379357,-1.280678,-0.511490,0.399923,-0.054595,0.014198,-0.981731,-0.189742,0.116586,0.120586,-0.077440,2.515342,-30.850067,9.236988,,,,,,,5
1508446885.687706,0.081075,1.370116,-1.276428,-0.439326,0.602003,0.023880,0.016143,-0.979931,-0.198682,0.110596,0.125393,-0.070377,2.435256,-30.959982,8.883953,,,,,,,5
1508446885.707705,0.091194,1.362339,-1.273726,-0.354049,0.621928,-0.037157,0.018846,-0.978351,-0.206091,0.107451,0.168415,-0.049738,2.404897,-30.979725,8.823183,,,,,,,5
1508446885.727727,0.105514,1.356204,-1.278542,-0.271830,0.373081,-0.099486,0.022428,-0.977063,-0.211765,0.114856,0.173276,-0.096691,2.270883,-31.073298,8.524594,,,,,,,5
1508446885.747741,0.115250,1.351261,-1.284704,-0.217416,0.073550,-0.077968,0.025043,-0.975999,-0.216332,0.121167,0.161866,-0.122398,2.265419,-31.094952,8.446736,,,,,,,5
1508446885.767733,0.113117,1.348238,-1.284883,-0.096058,-0.228929,0.021826,0.024915,-0.975336,-0.219315,0.133624,0.141291,-0.113922,2.309995,-31.144798,8.248701,,,,,,,5
1508446885.787763,0.097215,1.348791,-1.276999,0.085971,-0.535646,0.133830,0.021372,-0.975458,-0.219147,0.128653,0.145685,-0.115356,2.332278,-31.158348,8.191049,,,,,,,5
1508446885.807776,0.066577,1.351394,-1.262898,0.126606,-1.019957,0.172130,0.014480,-0.976028,-0.217164,0.089478,0.176360,-0.212615,2.356012,-31.147333,8.226082,,,,,,,5
1508446885.827791,0.024866,1.355976,-1.245085,0.299132,-1.314093,0.235087,0.005300,-0.977015,-0.213106,0.088084,0.041254,-0.256361,2.408934,-31.134514,8.259212,,,,,,,5
1508446885.847790,-0.032055,1.364644,-1.215120,0.500210,-1.379679,0.345301,-0.006560,-0.978826,-0.204590,0.093001,-0.028407,-0.268600,2.461590,-31.105852,8.351176,,,,,,,5
1508446885.867811,-0.092482,1.375152,-1.179016,0.566185,-1.136604,0.298116,-0.017953,-0.980923,-0.193568,-0.014426,-0.014820,-0.212895,2.488691,-31.041628,8.578998,,,,,,,5
1508446885.887822,-0.145178,1.386433,-1.142027,0.623419,-0.589556,0.291549,-0.026521,-0.983053,-0.181392,-0.144988,0.007437,-0.159902,2.499597,-30.936295,8.948360,,,,,,,5
1508446885.907833,-0.193653,1.397676,-1.094716,0.614462,0.226381,0.309128,-0.033150,-0.985052,-0.169037,-0.237221,0.043280,-0.060043,2.402120,-30.837296,9.309493,,,,,,,5
1508446885.927840,-0.218733,1.408735,-1.054756,0.623972,0.955616,0.142593,-0.035012,-0.986897,-0.157508,-0.193412,0.137898,0.200110,2.092292,-30.706625,9.803110,,,,,,,5
1508446885.947857,-0.223376,1.423674,-1.028217,0.899965,1.051599,-0.012638,-0.032474,-0.989197,-0.142950,-0.168332,0.115311,0.283102,1.892850,-30.609119,10.142704,,,,,,,5
1508446885.967864,-0.240158,1.444802,-0.995697,1.111009,0.630775,-0.020797,-0.029889,-0.992073,-0.122055,-0.147494,-0.163841,0.294754,1.697893,-30.411018,10.754653,,,,,,,5
1508446885.987859,-0.257886,1.457891,-0.960373,0.333258,1.261491,0.076540,-0.028734,-0.993633,-0.108940,-0.289946,-0.676777,-0.246407,1.494432,-30.152725,11.487180,,,,,,,5
1508446886.007883,-0.192015,1.457883,-0.984745,-0.135047,2.284436,-0.320507,-0.021502,-0.993632,-0.110603,-0.232770,-0.593175,-0.298851,1.196544,-30.127506,11.587802,,,,,,,5
1508446886.027903,-0.090083,1.457150,-1.057352,-0.051221,0.779022,-0.333731,-0.010202,-0.993549,-0.112942,0.205560,-0.238217,-0.135014,0.914917,-30.148310,11.559316,,,,,,,5
1508446886.047917,-0.116612,1.456530,-1.049105,0.016098,-1.942590,0.306808,-0.013266,-0.993479,-0.113243,0.482687,0.233011,0.205467,1.022206,-30.158367,11.524042,,,,,,,5
1508446886.067928,-0.299400,1.459470,-0.927315,0.495175,-3.457156,0.773845,-0.032767,-0.993810,-0.106154,0.574638,0.385274,0.371748,1.247013,-30.147808,11.529532,,,,,,,5
1508446886.087938,-0.543192,1.471051,-0.738280,1.167870,-2.100756,0.515301,-0.051470,-0.995030,-0.085247,0.734270,0.647312,0.589962,1.570747,-30.029079,11.796722,,,,,,,5
1508446886.107951,-0.760938,1.495358,-0.537241,1.691245,-0.139914,-0.379670,-0.051973,-0.997156,-0.054580,0.445726,0.550089,0.526046,1.849249,-29.645639,12.692198,,,,,,,5
1508446886.127963,-1.225117,1.529892,-0.050328,2.299891,1.662578,-0.672476,-0.038474,-0.999164,-0.013856,0.027411,0.061038,0.626039,1.914413,-29.533640,12.941199,,,,,,,5
1508446886.147972,-2.361731,1.525100,1.123124,2.296641,1.618126,-0.018783,-0.032122,-0.998956,0.032479,-0.413954,-0.377860,0.290656,1.866533,-28.580669,14.934422,,,,,,,5
1508446886.167987,-2.527262,1.493325,1.300424,1.043862,0.006931,0.805482,-0.044610,-0.997001,0.063243,-0.904700,-0.412301,-0.261607,1.237002,-27.813288,16.378839,,,,,,,5
1508446886.187991,-2.540561,1.476678,1.313170,0.758637,0.154339,0.082407,-0.053145,-0.995574,0.077510,-0.866899,-0.056382,-0.015605,1.124535,-27.732145,16.523895,,,,,,,5
1508446886.208008,-2.726568,1.457531,1.504518,1.652923,0.064287,-0.577848,-0.045572,-0.993592,0.103428,-0.418676,0.147035,0.011654,0.919223,-27.315485,17.216125,,,,,,,5
1508446886.228022,-2.907320,1.425023,1.676518,1.915013,-0.831888,-0.414521,-0.033719,-0.989394,0.141290,-0.041842,0.179366,0.026771,1.378492,-26.521626,18.386915,,,,,,,5
1508446886.248014,-2.980118,1.392957,1.733141,1.457455,-0.716528,-0.000831,-0.028441,-0.984228,0.174602,0.123427,0.112463,0.088933,1.743052,-25.999325,19.088541,,,,,,,5
1508446886.268045,-3.008186,1.369155,1.752508,1.112366,-0.276757,-0.062973,-0.026639,-0.979739,0.198498,0.244565,0.002139,0.105625,2.005593,-25.453873,19.785183,,,,,,,5
1508446886.288048,-3.035975,1.347354,1.784893,1.143239,0.507514,-0.284656,-0.023360,-0.975140,0.220353,0.221267,0.008954,0.127807,2.125700,-24.882357,20.487196,,,,,,,5
1508446886.308068,-3.048790,1.325160,1.816646,1.128963,1.074048,-0.198102,-0.022535,-0.969983,0.242127,0.112302,0.042020,0.076232,2.018057,-24.517361,20.933273,,,,,,,5
1508446886.328063,-3.037057,1.303266,1.831268,1.100811,1.370033,-0.014974,-0.027584,-0.964427,0.262907,-0.064213,0.086482,0.020357,1.623155,-24.033928,21.520020,,,,,,,5
1508446886.348086,-3.021315,1.279819,1.837544,1.252136,0.788115,0.076338,-0.034423,-0.957964,0.284816,-0.123948,0.030199,-0.211605,0.931168,-23.416134,22.230455,,,,,,,5
1508446886.368103,-3.023157,1.250993,1.842725,1.536872,-0.222200,0.108802,-0.037147,-0.949297,0.312177,-0.047143,-0.005750,-0.262952,0.722061,-22.968658,22.700104,,,,,,,5
1508446886.388113,-3.040089,1.219547,1.843430,1.545678,-1.126981,0.202953,-0.034864,-0.938943,0.342301,0.122587,-0.028082,-0.278260,0.827952,-22.260086,23.391850,,,,,,,5
1508446886.408117,-3.063429,1.189498,1.837806,1.453197,-1.550683,0.237006,-0.029057,-0.928182,0.370990,0.257069,-0.079020,-0.350543,1.452123,-21.361031,24.186218,,,,,,,5
1508446886.428139,-3.091250,1.162298,1.830749,1.243605,-1.843809,0.227601,-0.019989,-0.917718,0.396729,0.241196,-0.122168,-0.413742,1.968385,-20.845562,24.596004,,,,,,,5
1508446886.448148,-3.120977,1.142454,1.817831,0.828313,-2.193727,0.350613,-0.008563,-0.909656,0.415275,0.145419,-0.129086,-0.402717,2.808348,-20.268139,24.993822,,,,,,,5
1508446886.468162,3.132416,1.128776,1.800392,0.636711,-2.288183,0.347895,0.003926,-0.903889,0.427748,0.127025,-0.056743,-0.265059,3.526804,-19.971205,25.141361,,,,,,,5
1508446886.488162,3.098417,1.116322,1.790542,0.618907,-2.007531,0.097745,0.018948,-0.898492,0.438581,-0.095822,-0.008948,-0.014112,5.042167,-19.521301,25.236301,,,,,,,5
1508446886.508183,3.067723,1.104676,1.787508,0.569754,-1.438314,0.034950,0.033169,-0.893319,0.448198,-0.254620,-0.069999,0.010679,5.738491,-19.296738,25.260269,,,,,,,5
1508446886.528197,3.052420,1.093883,1.781786,0.515015,-0.799589,0.102060,0.040880,-0.888416,0.457216,-0.469545,-0.247250,-0.048845,6.271788,-19.083815,25.295221,,,,,,,5
1508446886.548190,3.043622,1.087419,1.777896,0.205162,-0.536206,0.033688,0.045461,-0.885430,0.462544,-0.634588,-0.423652,-0.383946,6.825021,-18.752155,25.399830,,,,,,,5
1508446886.568207,3.036269,1.085859,1.775741,0.041111,-0.428772,0.048386,0.049006,-0.884704,0.463570,-0.646418,-0.453202,-0.410546,7.006847,-18.700871,25.388130,,,,,,,5
1508446886.588233,3.028243,1.087103,1.777172,-0.169537,-0.284669,-0.090596,0.052601,-0.885283,0.462068,-0.576420,-0.495072,-0.443025,7.156343,-18.690399,25.354115,,,,,,,5
1508446886.608244,3.016370,1.096913,1.785894,-0.787069,-0.143237,-0.143500,0.056995,-0.889803,0.452772,-0.454365,-0.652861,-0.756590,7.416056,-18.863522,25.150450,,,,,,,5
1508446886.628240,3.010466,1.124244,1.797691,-1.742666,0.541765,-0.042266,0.056466,-0.901941,0.428151,-0.393777,-0.634039,-0.706365,7.459923,-19.235603,24.853905,,,,,,,5
1508446886.648260,3.016562,1.168010,1.813444,-2.454223,1.243191,-0.067839,0.048882,-0.919972,0.388923,0.129218,-0.363612,-0.466820,7.028701,-20.407013,24.031786,,,,,,,5
1508446886.668278,3.013953,1.221827,1.841800,-2.848797,0.975066,-0.246982,0.043525,-0.939726,0.339148,0.301476,-0.274004,-0.394812,6.607956,-21.313669,23.354614,,,,,,,5
1508446886.688262,2.979102,1.277343,1.881616,-2.774776,-0.408914,-0.167561,0.046795,-0.957251,0.285449,0.416385,-0.243250,-0.243381,6.349620,-22.578796,22.209364,,,,,,,5
1508446886.708288,2.916867,1.325363,1.920683,-2.229305,-1.719451,0.023345,0.054145,-0.970032,0.236867,0.476327,-0.375778,0.207835,6.805996,-23.972784,20.551388,,,,,,,5
1508446886.728314,2.845012,1.364582,1.944073,-1.878092,-2.797580,0.419384,0.059840,-0.978813,0.195816,0.460194,-0.493111,0.345214,7.381582,-24.615242,19.569815,,,,,,,5
1508446886.748324,2.808840,1.408311,1.925578,-2.165911,-2.455017,1.123193,0.052842,-0.986828,0.152897,0.388015,-0.554798,0.566631,8.358159,-25.787214,21.057203,,,,,,,5
1508446886.768328,2.875982,1.463020,1.826492,-2.534723,-0.982015,1.545031,0.028236,-0.994198,0.103796,-0.051445,-0.237400,0.587275,8.571529,-27.194197,19.111504,,,,,,,5
1508446886.788349,3.110781,1.520070,1.582948,-2.683592,-0.172579,1.201567,0.001562,-0.998714,0.050681,-0.139044,-0.159520,0.467340,8.147019,-28.104616,17.944405,,,,,,,5
1508446886.808359,-1.503034,1.553876,-0.084065,-2.523444,0.346487,0.804002,-0.016881,-0.999857,-0.001146,-0.254894,-0.107061,0.230775,7.535567,-29.197104,16.400896,,,,,,,5
1508446886.828374,-0.567821,1.509531,-1.007055,-2.533367,0.781234,0.874522,-0.032928,-0.998124,-0.051619,-0.207765,-0.030807,0.252119,6.753480,-30.319241,14.607504,,,,,,,5
1508446886.848361,-0.440116,1.455974,-1.115021,-2.565390,1.094486,0.830840,-0.048812,-0.993415,-0.103652,0.000289,0.094062,0.415603,6.564006,-30.531199,14.247972,,,,,,,5
1508446886.868377,-0.369388,1.404965,-1.163468,-2.404274,1.162704,0.617143,-0.059599,-0.986281,-0.153938,0.067930,0.149886,0.477241,5.557821,-31.516239,12.412988,,,,,,,5
1508446886.888408,-0.318753,1.357891,-1.189058,-2.246694,1.375942,0.557915,-0.066218,-0.977421,-0.200656,0.167902,0.232411,0.547702,4.559716,-32.422943,10.305670,,,,,,,5
1508446886.908419,-0.276173,1.312759,-1.198877,-2.154263,1.827337,0.544113,-0.069582,-0.966893,-0.245514,0.140154,0.250523,0.596405,4.069193,-32.786457,9.313160,,,,,,,5
1508446886.928430,-0.230945,1.270923,-1.202524,-1.937035,2.216669,0.421625,-0.067616,-0.955374,-0.287556,0.062276,0.307745,0.591206,3.393181,-33.196434,8.045373,,,,,,,5
1508446886.948443,-0.180016,1.236816,-1.206465,-1.504473,2.432390,0.202827,-0.058692,-0.944745,-0.322509,0.009254,0.382535,0.573211,2.931017,-33.437168,7.184012,,,,,,,5
1508446886.968447,-0.123069,1.213134,-1.213652,-0.999448,2.526969,-0.015464,-0.042976,-0.936718,-0.347438,-0.007302,0.490291,0.565608,2.280261,-33.733768,5.922700,,,,,,,5
1508446886.988464,-0.068451,1.199962,-1.221445,-0.454012,2.197115,-0.084678,-0.024787,-0.932025,-0.361544,0.002402,0.516483,0.566271,2.090080,-33.807343,5.562384,,,,,,,5
1508446887.008459,-0.033190,1.199356,-1.223225,0.231937,1.300539,0.027845,-0.012044,-0.931806,-0.362758,0.170110,0.506833,0.508617,1.872080,-33.843063,5.421007,,,,,,,5
1508446887.028490,-0.030695,1.211923,-1.213781,0.849743,0.119573,0.220511,-0.010779,-0.936293,-0.351054,0.229331,0.481566,0.432384,1.749189,-33.811886,5.651696,,,,,,,5
1508446887.048492,-0.067512,1.234442,-1.189321,1.306755,-1.186499,0.459669,-0.022265,-0.943964,-0.329296,0.347460,0.411966,0.240475,1.587997,-33.711914,6.263405,,,,,,,5
1508446887.068513,-0.151716,1.263598,-1.139326,1.634740,-2.162065,0.713983,-0.045702,-0.953184,-0.298916,0.441133,0.272124,-0.049549,1.392060,-33.492012,7.388668,,,,,,,5
1508446887.088525,-0.281701,1.290782,-1.057597,1.485541,-2.830318,0.981627,-0.076828,-0.961051,-0.265476,0.425568,0.125327,-0.218532,1.280841,-33.316689,8.161048,,,,,,,5
1508446887.108535,-0.448100,1.304172,-0.946669,0.959145,-2.770847,1.199858,-0.114152,-0.964666,-0.237464,0.170442,-0.273722,-0.540154,1.097629,-33.098030,9.031090,,,,,,,5
1508446887.128550,-0.559789,1.304681,-0.865320,0.208485,-0.948224,0.686092,-0.139647,-0.964800,-0.222845,-0.313310,-0.477476,-0.746393,0.740205,-32.937160,9.635380,,,,,,,5
1508446887.148561,-0.551676,1.302662,-0.861947,-0.101978,1.390093,-0.235706,-0.138856,-0.964267,-0.225630,-0.430816,-0.370435,-0.596254,0.567644,-32.933147,9.660782,,,,,,,5
1508446887.168571,-0.482179,1.305686,-0.888109,-0.037438,2.568887,-0.338627,-0.121500,-0.965064,-0.232142,-0.526175,-0.183969,-0.551732,0.441525,-32.945396,9.625536,,,,,,,5
1508446887.188585,-0.413161,1.306183,-0.901733,-0.053985,2.816263,-0.079843,-0.105009,-0.965194,-0.239530,-0.283038,0.085143,-0.291491,0.237887,-32.949108,9.620020,,,,,,,5
1508446887.208578,-0.362866,1.304491,-0.903618,-0.103035,2.137726,0.035319,-0.093413,-0.964750,-0.246032,-0.082002,0.021070,-0.079728,-0.461859,-32.969040,9.543280,,,,,,,5
1508446887.228606,-0.331805,1.306723,-0.902756,0.319339,1.151176,-0.102487,-0.085026,-0.965335,-0.246778,-0.078381,-0.070584,0.034467,-0.753006,-32.975571,9.502091,,,,,,,5
1508446887.248619,-0.327076,1.324988,-0.904403,1.202299,-0.365359,-0.440258,-0.078179,-0.969941,-0.230440,-0.012641,-0.344909,0.248140,-0.770328,-32.848129,9.932377,,,,,,,5
1508446887.268622,-0.340252,1.354733,-0.902652,1.385406,-0.402542,-0.413221,-0.071546,-0.976749,-0.202096,0.169462,-0.535519,0.493630,-0.452436,-32.646450,10.594795,,,,,,,5
1508446887.288641,-0.342539,1.377525,-0.883327,0.957873,1.614181,-0.055341,-0.064512,-0.981381,-0.180912,0.335615,-0.149493,0.377888,-0.189117,-32.354561,11.462625,,,,,,,5
1508446887.308654,-0.338439,1.384201,-0.852648,0.058790,1.378867,0.261806,-0.061594,-0.982642,-0.174991,0.321466,0.270743,0.227527,-0.702134,-32.139988,12.032177,,,,,,,5
1508446887.328666,-0.363765,1.381634,-0.820267,0.134064,-0.389670,0.343076,-0.066902,-0.982162,-0.175732,0.404564,0.559417,0.502148,-1.084328,-32.142979,11.995760,,,,,,,5
1508446887.348676,-0.451668,1.393597,-0.761393,1.187184,-2.053414,0.160986,-0.076937,-0.984341,-0.158596,0.461962,0.627347,0.593136,-1.081741,-32.071274,12.186392,,,,,,,5
1508446887.368584,-0.609182,1.428626,-0.648506,2.398704,-2.194886,-0.314644,-0.081075,-0.989911,-0.116203,0.417379,0.398923,0.671318,-0.433203,-31.587801,13.426402,,,,,,,5
1508446887.388581,-0.890754,1.478432,-0.390318,2.976654,-0.511601,-0.677002,-0.071715,-0.995737,-0.057998,0.295257,0.164622,0.651993,0.171701,-31.038570,14.656831,,,,,,,5
1508446887.408608,-1.538320,1.509244,0.274400,2.695040,1.413677,-0.321181,-0.061481,-0.998106,-0.001997,0.155414,-0.089388,0.583601,0.588848,-30.353716,16.017187,,,,,,,5
1508446887.428610,-2.079687,1.495921,0.841982,1.410956,0.627961,0.511968,-0.065326,-0.997198,0.036446,-0.472546,-0.534021,-0.327476,0.121665,-29.058886,18.270506,,,,,,,5
1508446887.448632,-2.144429,1.477784,0.905510,0.489309,-0.135453,0.487811,-0.078012,-0.995677,0.050404,-0.444647,-0.230305,-0.083058,-0.294690,-28.714254,18.805576,,,,,,,5
1508446887.468644,-2.265381,1.469454,1.026956,0.951621,-0.102166,-0.251539,-0.077730,-0.994869,0.064755,-0.309111,0.182293,0.106144,-0.389484,-28.616999,18.951536,,,,,,,5
1508446887.488656,-2.489440,1.452052,1.237352,1.697247,-1.140026,-0.127982,-0.071897,-0.992958,0.094154,-0.056293,0.415627,0.116646,-0.049085,-28.002340,19.852243,,,,,,,5
1508446887.508667,-2.666619,1.416672,1.391064,2.214286,-1.126709,0.112669,-0.070205,-0.988146,0.136522,0.090865,0.211169,0.048811,0.460162,-27.219814,20.907295,,,,,,,5
1508446887.528677,-2.784536,1.374444,1.492684,2.262262,-0.816967,-0.011276,-0.068189,-0.980785,0.182789,0.120007,0.050227,-0.003879,0.657774,-26.743929,21.507549,,,,,,,5
1508446887.548690,-2.864790,1.335965,1.559081,1.872687,-0.715123,-0.110241,-0.063587,-0.972553,0.223822,0.061664,-0.154186,0.002481,1.223712,-25.268480,23.200249,,,,,,,5
1508446887.568703,-2.916634,1.307247,1.600774,1.311509,-0.502461,-0.139202,-0.058110,-0.965472,0.253945,0.026540,-0.142973,-0.030876,1.502628,-24.655260,23.834957,,,,,,,5
1508446887.588712,-2.945853,1.286153,1.621578,1.000332,-0.440201,-0.002242,-0.054616,-0.959762,0.275453,-0.126917,0.061858,-0.087312,1.800301,-24.039852,24.435415,,,,,,,5
1508446887.608725,-2.963845,1.265116,1.631538,1.162016,-0.452705,0.091716,-0.053211,-0.953642,0.296201,-0.157864,0.072630,-0.125455,2.053756,-23.406639,25.023117,,,,,,,5
1508446887.628712,-2.983955,1.237191,1.639072,1.517767,-0.765157,0.109323,-0.051405,-0.944868,0.323392,-0.110414,0.062498,-0.109616,2.215708,-22.932865,25.444435,,,,,,,5
1508446887.648747,-3.009945,1.205768,1.648830,1.564800,-0.854696,0.029787,-0.046859,-0.934114,0.353887,0.011444,0.041642,-0.088979,2.572521,-22.148289,26.097519,,,,,,,5
1508446887.668760,-3.035624,1.176425,1.658568,1.428582,-0.809130,-0.023475,-0.040640,-0.923238,0.382072,0.105535,-0.017710,-0.081047,3.123340,-21.137798,26.864162,,,,,,,5
1508446887.688772,-3.059753,1.148805,1.667727,1.376483,-0.783779,-0.072864,-0.033482,-0.912275,0.408207,0.096883,-0.069689,-0.144825,3.569550,-20.372782,27.394398,,,,,,,5
1508446887.708782,-3.084835,1.122486,1.676960,1.277573,-0.876279,-0.109952,-0.024588,-0.901181,0.432745,0.026022,-0.049076,-0.210364,3.926885,-19.804031,27.760132,,,,,,,5
1508446887.728796,-3.108004,1.097592,1.681757,1.271059,-1.000192,-0.002560,-0.015305,-0.890113,0.455484,-0.047714,-0.071603,-0.421930,4.598111,-18.910345,28.275454,,,,,,,5
1508446887.748808,-3.133150,1.070194,1.681841,1.403264,-1.438920,0.021624,-0.004052,-0.877294,0.479937,0.014931,-0.281504,-0.575411,5.241630,-18.151411,28.658274,,,,,,,5
1508446887.768795,3.117629,1.045329,1.682142,1.069103,-1.624803,-0.021735,0.012019,-0.865090,0.501473,0.041631,-0.342506,-0.537255,5.241630,-18.151411,28.658274,,,,,,,5
1508446887.788810,3.091008,1.032863,1.679720,0.347935,-1.291577,0.073714,0.025907,-0.858770,0.511707,-0.136991,-0.357997,-0.336383,7.018786,-16.920971,29.028648,,,,,,,5
1508446887.808843,3.073681,1.032257,1.675946,-0.089938,-0.852517,0.098115,0.034804,-0.858459,0.511700,-0.264037,-0.340241,-0.294110,7.648400,-16.849659,28.910828,,,,,,,5
1508446887.828843,3.065902,1.035792,1.673538,-0.205137,-0.281079,0.052877,0.038554,-0.860267,0.508385,-0.433878,-0.368554,-0.322746,7.931091,-16.915581,28.795935,,,,,,,5
1508446887.848869,3.065487,1.040415,1.670199,-0.268176,-0.198890,0.154635,0.038462,-0.862614,0.504398,-0.596094,-0.648418,-0.900623,8.066237,-17.077433,28.662558,,,,,,,5
1508446887.868851,3.063040,1.053833,1.665943,-0.980371,-0.293208,0.112483,0.038784,-0.869324,0.492718,-0.665280,-0.650680,-0.924405,8.136079,-17.267553,28.528597,,,,,,,5
1508446887.888887,3.055786,1.085945,1.671673,-1.974707,0.065751,-0.069006,0.039943,-0.884744,0.464362,-0.555782,-0.618750,-0.822501,8.254631,-17.912025,28.093870,,,,,,,5
1508446887.908902,3.047562,1.133018,1.688730,-2.563407,0.419256,-0.230116,0.039803,-0.905696,0.422056,0.207740,-0.336385,-0.311857,8.170907,-19.363369,27.139292,,,,,,,5
1508446887.928914,3.027911,1.186189,1.718019,-2.744239,0.305446,-0.297709,0.042561,-0.926946,0.372773,0.314998,-0.275859,-0.135728,8.092088,-20.387867,26.402615,,,,,,,5
1508446887.948923,3.011139,1.237896,1.738646,-2.459457,-0.054396,0.131332,0.042510,-0.945099,0.324009,0.400255,-0.536423,0.242184,8.048682,-21.755777,25.301186,,,,,,,5
1508446887.968937,2.995615,1.281544,1.738798,-2.027986,-1.287255,0.341587,0.041490,-0.958457,0.282202,0.355345,-0.822762,0.388376,8.148535,-23.231785,23.919252,,,,,,,5
1508446887.988942,2.970541,1.326278,1.726989,-2.408386,-1.896714,0.678704,0.041208,-0.970254,0.238556,0.223318,-0.815299,0.419357,8.567147,-23.999954,22.996763,,,,,,,5
1508446888.008958,2.991336,1.389632,1.683264,-3.407417,-0.474542,1.051647,0.026971,-0.983635,0.178145,-0.063821,-0.349251,0.267564,8.960732,-25.267567,21.435959,,,,,,,5
1508446888.028972,3.052474,1.461450,1.623824,-3.418867,0.262523,0.691161,0.009712,-0.994028,0.108695,-0.175026,-0.119238,0.092980,8.453103,-27.225527,19.119642,,,,,,,5
1508446888.048953,-3.141561,1.524057,1.539290,-2.996610,0.243026,0.344333,-0.000001,-0.998908,0.046722,-0.179167,-0.030847,0.212463,8.136827,-28.208309,17.785622,,,,,,,5
1508446888.068994,-0.563230,1.555784,-1.032384,-2.969244,0.420878,0.474592,-0.008015,-0.999887,-0.012693,-0.044292,-0.024435,0.363676,7.912450,-29.023767,16.530550,,,,,,,5
1508446888.089007,-0.267618,1.497392,-1.317259,-2.839730,0.601995,0.642963,-0.019393,-0.997307,-0.070728,0.025451,0.065346,0.419132,7.526331,-30.023006,14.839761,,,,,,,5
1508446888.109018,-0.248212,1.440752,-1.323363,-2.684464,0.713720,0.717797,-0.031858,-0.991556,-0.125704,0.062162,0.195444,0.448077,6.681504,-31.314043,12.370660,,,,,,,5
1508446888.129003,-0.241842,1.387280,-1.311804,-2.501528,1.030283,0.741906,-0.043704,-0.983208,-0.177177,0.069339,0.199334,0.505149,6.365064,-31.680248,11.579844,,,,,,,5
1508446888.149040,-0.226521,1.336347,-1.299810,-2.434599,1.554816,0.677905,-0.052174,-0.972642,-0.226372,0.020313,0.251115,0.566109,5.313910,-32.594067,9.361319,,,,,,,5
1508446888.169056,-0.191438,1.286420,-1.298277,-2.427984,1.951276,0.435498,-0.053382,-0.959837,-0.275434,0.004112,0.277952,0.601041,4.622352,-33.075462,7.930491,,,,,,,5
1508446888.189042,-0.142462,1.239413,-1.307325,-2.259312,2.029898,0.160116,-0.046194,-0.945593,-0.322056,-0.030589,0.330771,0.612339,4.222438,-33.365971,6.864988,,,,,,,5
1508446888.209078,-0.093610,1.198858,-1.317675,-1.874796,1.869729,0.018384,-0.033970,-0.931625,-0.361831,0.022984,0.406371,0.562423,3.817697,-33.706757,5.246416,,,,,,,5
1508446888.229090,-0.056098,1.168082,-1.324677,-1.327163,1.305199,-0.022242,-0.021974,-0.920001,-0.391300,0.078340,0.408663,0.551884,3.689814,-33.834015,4.459780,,,,,,,5
1508446888.249091,-0.042891,1.150193,-1.323670,-0.613569,0.295128,0.144726,-0.017507,-0.912843,-0.407936,0.193457,0.375627,0.501075,3.596240,-33.934933,3.705741,,,,,,,5
1508446888.269096,-0.066405,1.147391,-1.307951,0.171233,-0.919546,0.444155,-0.027264,-0.911695,-0.409962,0.299511,0.302915,0.428928,3.409603,-33.990898,3.352401,,,,,,,5
1508446888.289125,-0.128102,1.157732,-1.273661,0.783340,-1.777130,0.759465,-0.051282,-0.915895,-0.398129,0.318494,0.270875,0.435879,3.203709,-33.998962,3.471599,,,,,,,5
1508446888.309134,-0.213898,1.173486,-1.222722,1.012195,-2.009537,0.863393,-0.082136,-0.922105,-0.378122,0.275571,0.200792,0.290857,2.805495,-33.985977,3.915051,,,,,,,5
1508446888.329136,-0.301857,1.189514,-1.170476,1.020982,-1.826481,0.657044,-0.110626,-0.928188,-0.355286,0.104050,0.134182,0.158570,2.325507,-33.929726,4.648728,,,,,,,5
1508446888.349141,-0.356127,1.207533,-1.133184,1.024395,-0.505639,0.154447,-0.123883,-0.934742,-0.333031,-0.132235,-0.021343,-0.256615,2.159444,-33.869873,5.139416,,,,,,,5
1508446888.369169,-0.354430,1.219425,-1.124108,0.401209,1.265507,-0.175170,-0.119452,-0.938902,-0.322793,-0.353006,-0.205309,-0.395484,2.115671,-33.794922,5.627810,,,,,,,5
1508446888.389180,-0.307745,1.227412,-1.131831,0.358338,2.127843,-0.261116,-0.101982,-0.941621,-0.320858,-0.318733,-0.174667,-0.558200,2.054838,-33.708496,6.144916,,,,,,,5
1508446888.409193,-0.263856,1.237440,-1.138249,0.509722,1.707120,-0.249537,-0.085340,-0.944949,-0.315892,-0.214038,0.014026,-0.460979,1.987319,-33.663754,6.406816,,,,,,,5
1508446888.429205,-0.226375,1.252118,-1.145721,0.819805,1.422054,-0.305754,-0.070322,-0.949650,-0.305318,-0.126044,0.200871,-0.132670,1.941816,-33.581570,6.837582,,,,,,,5
1508446888.449220,-0.200953,1.274030,-1.148984,1.186281,0.901432,-0.273309,-0.058370,-0.956287,-0.286545,0.012593,0.335376,0.175201,1.952785,-33.400669,7.669868,,,,,,,5
1508446888.469229,-0.196964,1.303285,-1.143884,1.653900,0.119700,-0.161437,-0.051728,-0.964432,-0.259221,0.083466,0.185028,0.457006,1.994427,-33.239746,8.329865,,,,,,,5
1508446888.489217,-0.239038,1.347637,-1.111172,2.648668,-0.858842,-0.049620,-0.052399,-0.975203,-0.215019,0.169358,-0.540910,0.190864,2.061884,-33.015739,9.162670,,,,,,,5
1508446888.509239,-0.338886,1.390380,-1.027823,1.687445,-0.468268,0.307948,-0.059652,-0.983769,-0.169234,0.242666,-1.209301,-0.026353,2.292684,-32.264084,11.489895,,,,,,,5
1508446888.529265,-0.349886,1.408464,-0.993966,0.607752,1.470262,-0.223353,-0.055402,-0.986853,-0.151828,0.362973,-0.591440,0.270297,2.076689,-31.978640,12.300367,,,,,,,5
1508446888.549272,-0.329430,1.410794,-0.999919,-0.136416,0.200134,0.087903,-0.051541,-0.987227,-0.150753,0.368023,0.144927,0.413021,1.946814,-31.901691,12.519466,,,,,,,5
1508446888.569269,-0.381366,1.406568,-0.953820,0.076004,-0.421885,0.568321,-0.060849,-0.986545,-0.151745,0.247785,0.690601,0.596798,1.768672,-31.944202,12.437234,,,,,,,5
1508446888.589300,-0.464422,1.411387,-0.875548,0.739704,-0.205400,0.299259,-0.071099,-0.987321,-0.141922,0.142723,0.881105,0.640091,1.508246,-31.883772,12.625179,,,,,,,5
1508446888.609300,-0.520815,1.438384,-0.813225,1.921572,0.676947,-0.561279,-0.065694,-0.991246,-0.114521,0.035161,0.737889,0.680302,1.464313,-31.778976,12.891764,,,,,,,5
1508446888.629307,-0.707545,1.493474,-0.604763,3.314180,0.987325,-0.603851,-0.050207,-0.997012,-0.058704,-0.332132,-0.059140,0.182208,1.664369,-30.862160,14.933249,,,,,,,5
1508446888.649337,-1.737562,1.521075,0.425682,3.124985,-0.846039,0.340824,-0.049011,-0.998764,0.008250,-0.578278,-0.449203,-0.340464,1.703259,-30.047586,16.507168,,,,,,,5
1508446888.669346,-2.318526,1.485744,0.982039,2.050124,-1.051356,0.703392,-0.062288,-0.996385,0.057764,-0.335310,-0.385451,0.092718,1.786933,-29.035898,18.220001,,,,,,,5
1508446888.689360,-2.523078,1.457373,1.182884,1.548462,0.066751,-0.130404,-0.065625,-0.993575,0.092212,-0.089984,-0.085313,0.161984,1.767598,-28.148252,19.565186,,,,,,,5
1508446888.709370,-2.668141,1.437101,1.328167,1.235612,-0.159503,-0.171489,-0.060778,-0.991076,0.118634,0.151919,0.203799,0.028033,1.889917,-27.578344,20.349649,,,,,,,5
1508446888.729382,-2.732686,1.411134,1.387158,1.486088,-0.361793,0.345762,-0.063214,-0.987281,0.145878,0.195217,0.265098,-0.029163,1.889917,-27.578344,20.349649,,,,,,,5
1508446888.749395,-2.783278,1.379711,1.430757,1.623949,-0.335288,0.047727,-0.066606,-0.981799,0.177863,0.216783,0.289629,-0.040152,1.961230,-26.727196,21.448908,,,,,,,5
1508446888.769405,-2.862820,1.349913,1.508413,1.691764,-0.147889,-0.426447,-0.060289,-0.975704,0.210634,0.039903,-0.046574,0.019972,2.166952,-25.643673,22.714561,,,,,,,5
1508446888.789417,-2.932400,1.318916,1.574818,1.670308,-0.298256,-0.291516,-0.051757,-0.968446,0.243792,-0.029985,-0.105102,0.026503,2.166952,-25.643673,22.714561,,,,,,,5
1508446888.809432,-2.965468,1.288320,1.602277,1.499337,-0.347883,0.072243,-0.048839,-0.960368,0.274423,-0.135732,-0.124120,-0.005060,2.607720,-24.440018,23.961018,,,,,,,5
1508446888.829440,-2.975885,1.259848,1.604917,1.368120,-0.430087,0.240392,-0.050469,-0.952044,0.301771,-0.109703,0.007036,-0.072019,2.809062,-23.355995,24.997032,,,,,,,5
1508446888.849443,-2.989416,1.232478,1.607733,1.366300,-0.619610,0.117788,-0.050313,-0.943314,0.328066,-0.023616,0.076691,-0.082399,2.868054,-23.019966,25.300207,,,,,,,5
1508446888.869448,-3.012714,1.203741,1.615697,1.507107,-0.924790,0.055900,-0.046122,-0.933388,0.355892,0.189525,0.103570,-0.071087,3.300502,-21.956936,26.177177,,,,,,,5
1508446888.889476,-3.043784,1.170347,1.622678,1.767147,-1.398736,0.053429,-0.038068,-0.920886,0.387969,0.253477,0.013781,-0.162978,3.863483,-21.108978,26.790474,,,,,,,5
1508446888.909474,-3.080747,1.134473,1.630395,1.770584,-1.486248,-0.060537,-0.025698,-0.906312,0.421828,0.255068,-0.068237,-0.265135,4.241522,-20.629251,27.105137,,,,,,,5
1508446888.929496,-3.114932,1.103125,1.636285,1.409545,-1.466773,-0.014524,-0.012018,-0.892620,0.450649,0.071756,-0.242557,-0.484234,5.485962,-19.207787,27.914337,,,,,,,5
1508446888.949511,3.139969,1.081032,1.633440,0.940885,-1.572310,0.113556,0.000764,-0.882444,0.470417,-0.001969,-0.255007,-0.484898,6.108119,-18.671474,28.148037,,,,,,,5
1508446888.969510,3.110906,1.065872,1.630587,0.652537,-1.552391,-0.005931,0.014842,-0.875211,0.483514,-0.116954,-0.280444,-0.380975,6.961096,-18.171385,28.277004,,,,,,,5
1508446888.989537,3.081098,1.056015,1.633527,0.412982,-1.207377,-0.111992,0.029766,-0.870401,0.491444,-0.391689,-0.260459,-0.246799,8.024416,-17.749502,28.263206,,,,,,,5
1508446889.009547,3.062986,1.048614,1.634353,0.342238,-0.648170,-0.002485,0.039166,-0.866733,0.497232,-0.528058,-0.307049,-0.252313,8.620726,-17.519501,28.231102,,,,,,,5
1508446889.029552,3.056682,1.044413,1.633704,0.111009,-0.215754,-0.024297,0.042609,-0.864630,0.500599,-0.565131,-0.368555,-0.365147,8.782688,-17.428841,28.237297,,,,,,,5
1508446889.049571,3.049305,1.045798,1.636767,-0.199743,-0.275328,-0.095050,0.046190,-0.865325,0.499079,-0.566194,-0.627687,-0.750421,11.578933,-19.694210,24.406670,,,,,,,5
1508446889.069569,3.038023,1.058008,1.642465,-0.979186,-0.311963,-0.056793,0.050721,-0.871380,0.487980,-0.643708,-0.736042,-0.829593,11.764093,-19.880268,24.166096,,,,,,,5
1508446889.089593,3.033358,1.092125,1.649549,-2.137125,0.415675,0.054515,0.049756,-0.887608,0.457905,-0.604916,-0.708034,-0.803135,11.836608,-20.146418,23.908903,,,,,,,5
1508446889.109606,3.039838,1.145474,1.662752,-2.921946,1.096570,-0.081347,0.041913,-0.910906,0.410480,0.160449,-0.292158,-0.704914,11.462463,-21.713257,22.688446,,,,,,,5
1508446889.129597,3.030838,1.203525,1.686952,-2.824493,0.194379,-0.144044,0.039687,-0.933311,0.356870,0.470063,-0.186471,-0.224408,11.131575,-22.991367,21.566273,,,,,,,5
1508446889.149628,3.006969,1.250995,1.698180,-2.070697,-1.127210,0.259393,0.042195,-0.949298,0.311533,0.488185,-0.271756,0.096761,11.154334,-23.564220,20.926716,,,,,,,5
1508446889.169639,2.977285,1.286728,1.687846,-1.667906,-2.487543,0.467185,0.045843,-0.959923,0.276489,0.447550,-0.774055,0.591813,11.734058,-24.875813,19.003288,,,,,,,5
1508446889.189653,2.946244,1.329005,1.664791,-2.347048,-2.422145,0.868378,0.046478,-0.970910,0.234888,0.345353,-0.868552,0.578283,12.419857,-25.690807,17.416908,,,,,,,5
1508446889.209664,2.978236,1.392174,1.604749,-3.315464,-0.655612,1.292942,0.028895,-0.984089,0.175309,-0.044642,-0.457744,0.316635,12.524352,-26.538969,16.013836,,,,,,,5
1508446889.229679,3.073816,1.462578,1.509596,-3.346136,0.341585,0.889905,0.007315,-0.994150,0.107759,-0.274054,-0.145041,0.123350,11.845395,-28.144878,13.607773,,,,,,,5
1508446889.249688,-3.029772,1.525073,1.340683,-3.026094,0.660685,0.445595,-0.005100,-0.998955,0.045422,-0.252239,-0.027000,0.231311,11.328587,-29.122831,11.880357,,,,,,,5
1508446889.269695,-0.768604,1.550348,-0.905638,-2.981548,0.808525,0.502506,-0.014213,-0.999791,-0.014699,-0.180108,0.000661,0.306645,11.124162,-29.517374,11.072348,,,,,,,5
1508446889.289695,-0.355123,1.495076,-1.300321,-2.656250,1.051350,0.726842,-0.026303,-0.997135,-0.070927,-0.084857,0.101551,0.390279,10.388220,-30.557362,8.715020,,,,,,,5
1508446889.309725,-0.324559,1.441324,-1.306919,-2.531133,1.315526,0.950606,-0.041172,-0.991630,-0.122370,-0.087139,0.120201,0.436060,9.892481,-30.995146,7.684971,,,,,,,5
1508446889.329721,-0.304254,1.385344,-1.293366,-2.692180,1.962464,0.919953,-0.055240,-0.982853,-0.175922,-0.020596,0.187351,0.504367,9.307922,-31.404825,6.687194,,,,,,,5
1508446889.349748,-0.242719,1.327980,-1.305507,-2.848296,2.768311,0.460369,-0.057787,-0.970665,-0.233390,0.083743,0.263740,0.542930,8.160273,-32.085651,4.641123,,,,,,,5
1508446889.369760,-0.150175,1.271669,-1.338975,-2.801693,3.053191,-0.089504,-0.044088,-0.955594,-0.291370,0.078680,0.277386,0.541431,7.827443,-32.300877,3.606033,,,,,,,5
1508446889.389769,-0.058606,1.220266,-1.376705,-2.493145,2.576969,-0.431229,-0.020114,-0.939191,-0.342806,0.057376,0.328763,0.490237,7.742350,-32.441799,2.281396,,,,,,,5
1508446889.409782,0.005475,1.175541,-1.402172,-2.074385,1.613547,-0.335869,0.002108,-0.922898,-0.385038,0.158597,0.404405,0.407468,7.991118,-32.451878,0.798126,,,,,,,5
1508446889.429768,0.026226,1.142364,-1.406206,-1.364248,0.399178,0.039606,0.010894,-0.909618,-0.415302,0.229157,0.416531,0.385441,8.104188,-32.433640,0.020423,,,,,,,5
1508446889.449804,0.008148,1.126565,-1.391833,-0.456208,-0.595334,0.431787,0.003502,-0.902941,-0.429749,0.250450,0.354541,0.477036,8.046535,-32.439445,-0.744809,,,,,,,5
1508446889.469818,-0.035536,1.126128,-1.362781,0.202542,-0.953733,0.722305,-0.015283,-0.902753,-0.429887,0.230218,0.247709,0.624086,7.615458,-32.533005,-1.108026,,,,,,,5
1508446889.489822,-0.092425,1.133437,-1.322244,0.528112,-1.078651,0.896322,-0.039091,-0.905873,-0.421741,0.137998,0.228780,0.637745,7.221385,-32.624008,-1.069991,,,,,,,5
1508446889.509839,-0.161858,1.145285,-1.273753,0.831665,-1.394208,0.929466,-0.066521,-0.910828,-0.407391,0.126138,0.298737,0.618909,6.767018,-32.725723,-0.923831,,,,,,,5
1508446889.529853,-0.240752,1.161555,-1.220738,1.106573,-1.536970,0.853902,-0.094876,-0.917423,-0.386437,0.151333,0.424381,0.532449,5.836164,-32.915730,-0.336280,,,,,,,5
1508446889.549850,-0.314210,1.182499,-1.167908,1.423007,-0.946418,0.568414,-0.117016,-0.925555,-0.360076,0.101940,0.338016,0.267410,5.327817,-33.002121,0.305854,,,,,,,5
1508446889.569876,-0.361083,1.211605,-1.123207,1.785254,0.227750,0.099546,-0.124187,-0.936181,-0.328850,0.013225,0.238412,0.096992,5.327817,-33.002121,0.305854,,,,,,,5
1508446889.589875,-0.378104,1.248221,-1.085650,1.815979,1.132241,-0.072005,-0.117027,-0.948422,-0.294618,-0.379936,-0.315707,-0.733137,5.048537,-32.992447,1.905214,,,,,,,5
1508446889.609901,-0.381307,1.271009,-1.051810,0.850840,1.549725,0.082185,-0.109898,-0.955399,-0.274107,-0.502911,-0.822891,-1.254671,4.964763,-32.848961,3.730400,,,,,,,5
1508446889.629899,-0.346036,1.277301,-1.049013,0.059890,2.172795,-0.185800,-0.098122,-0.957239,-0.272151,-0.440635,-0.507636,-1.022023,4.883702,-32.823669,4.046639,,,,,,,5
1508446889.649925,-0.273437,1.272924,-1.079113,-0.579532,2.078761,-0.439234,-0.079254,-0.955963,-0.282583,-0.313355,0.074326,-0.461771,4.829427,-32.795807,4.327919,,,,,,,5
1508446889.669936,-0.205695,1.273237,-1.103639,0.450875,2.257046,-0.336897,-0.059883,-0.956055,-0.287007,-0.201958,0.240616,0.123707,4.886424,-32.796852,4.255410,,,,,,,5
1508446889.689927,-0.173474,1.303237,-1.116448,2.053736,-0.072005,-0.518146,-0.045633,-0.964419,-0.260410,0.098962,-0.009778,0.608158,4.949446,-32.701283,4.873211,,,,,,,5
1508446889.709959,-0.205141,1.358893,-1.115448,2.921174,-2.004382,-0.385742,-0.042844,-0.977632,-0.205911,0.428128,-0.585219,0.762735,5.488811,-32.292305,6.685740,,,,,,,5
1508446889.729965,-0.284656,1.397718,-1.050125,1.116890,0.548021,0.446702,-0.048363,-0.985059,-0.165285,0.583473,-0.680972,0.366853,5.767402,-31.982632,7.840122,,,,,,,5
1508446889.749980,-0.317083,1.384848,-0.984650,-0.974370,1.567086,0.819906,-0.057645,-0.982761,-0.175663,0.510236,0.107899,-0.018261,5.307276,-31.919897,8.400721,,,,,,,5
1508446889.769994,-0.357229,1.370669,-0.931885,0.015980,-0.046845,0.594747,-0.069514,-0.980041,-0.186244,0.344615,0.414642,0.517268,4.451422,-32.168930,7.934969,,,,,,,5
1508446889.789996,-0.425754,1.385473,-0.877657,1.296442,-1.028352,-0.097093,-0.076103,-0.982877,-0.167815,0.221290,0.602261,0.798537,4.278332,-32.151352,8.099719,,,,,,,5
1508446889.810016,-0.465369,1.420843,-0.853796,1.888373,-0.543534,-0.805219,-0.067040,-0.988778,-0.133505,0.095040,0.447961,0.662970,4.573675,-31.901733,8.887070,,,,,,,5
1508446889.830030,-0.547241,1.468220,-0.776008,2.535057,-0.148780,-0.528072,-0.053280,-0.994744,-0.087443,-0.081348,0.012322,0.332255,5.280475,-31.307051,10.469203,,,,,,,5
1508446889.850029,-1.003153,1.506376,-0.324497,2.594323,-0.436751,0.368714,-0.054280,-0.997926,-0.034611,-0.325054,-0.263457,0.054051,5.453757,-30.849152,11.670707,,,,,,,5
1508446889.870051,-1.763153,1.500707,0.423128,2.240180,-0.774877,0.835087,-0.068740,-0.997545,0.013388,-0.426881,-0.353117,0.117654,5.370979,-30.403595,12.821588,,,,,,,5
1508446889.890066,-2.185986,1.472149,0.832377,2.052516,-0.723306,0.365090,-0.080431,-0.995138,0.056838,-0.344358,-0.144464,0.250855,5.018700,-29.595707,14.714818,,,,,,,5
1508446889.910078,-2.458912,1.447209,1.092139,1.794894,-0.722208,-0.270559,-0.077770,-0.992373,0.095646,-0.011769,0.113695,0.133084,5.195544,-29.006624,15.787374,,,,,,,5
1508446889.930087,-2.639362,1.421553,1.263509,1.689127,-0.422159,-0.151954,-0.071577,-0.988884,0.130328,0.092542,0.124901,0.017316,5.480066,-28.559153,16.491293,,,,,,,5
1508446889.950096,-2.736525,1.393029,1.353998,1.517525,-0.423836,-0.050091,-0.069686,-0.984241,0.162522,0.165679,0.165607,0.013641,5.724822,-27.839632,17.601149,,,,,,,5
1508446889.970112,-2.816572,1.366497,1.425236,1.500819,-0.557144,-0.200459,-0.064786,-0.979203,0.192259,0.111417,0.136308,0.067247,5.960965,-27.291733,18.364296,,,,,,,5
1508446889.990098,-2.887802,1.337319,1.484605,1.616939,-0.712277,-0.192164,-0.058089,-0.972868,0.223951,0.056380,0.095671,0.112338,6.212508,-26.842957,18.933558,,,,,,,5
1508446890.010124,-2.938415,1.305097,1.522682,1.702824,-0.651110,-0.004014,-0.052985,-0.964909,0.257183,-0.127313,-0.009807,0.044819,6.652573,-26.020767,19.906834,,,,,,,5
1508446890.030140,-2.959679,1.271509,1.533036,1.626690,-0.535378,0.270149,-0.053340,-0.955547,0.289975,-0.173558,0.006862,-0.026165,6.809131,-25.511648,20.503918,,,,,,,5
1508446890.050157,-2.971365,1.241206,1.533807,1.430907,-0.577986,0.207810,-0.054829,-0.946175,0.318978,-0.150691,0.083123,-0.094521,6.900247,-24.882521,21.233601,,,,,,,5
1508446890.070171,-2.994500,1.212623,1.542043,1.454833,-0.922854,0.019287,-0.051379,-0.936539,0.346778,0.110645,0.074692,-0.071342,7.158025,-24.134947,21.997414,,,,,,,5
1508446890.090183,-3.031127,1.182890,1.556685,1.535092,-1.256940,-0.115525,-0.041699,-0.925703,0.375945,0.172177,0.058836,-0.080322,7.506182,-23.640158,22.414711,,,,,,,5
1508446890.110175,-3.067867,1.152078,1.570917,1.556317,-1.055170,-0.133298,-0.029949,-0.913611,0.405485,0.208400,0.013968,-0.270902,8.125651,-22.921606,22.938892,,,,,,,5
1508446890.130209,-3.092178,1.122742,1.577277,1.413287,-0.939770,0.035968,-0.021398,-0.901292,0.432684,0.028540,-0.013412,-0.476919,8.759344,-22.017422,23.582329,,,,,,,5
1508446890.150208,-3.115314,1.094667,1.574355,1.424086,-1.591698,0.135650,-0.012043,-0.888776,0.458184,0.005253,-0.106952,-0.485040,9.105783,-21.530611,23.898464,,,,,,,5
1508446890.170228,3.126792,1.065430,1.573882,1.441825,-2.247916,-0.078714,0.007165,-0.874997,0.484075,0.060081,-0.239932,-0.269689,9.879457,-20.859707,24.184460,,,,,,,5
1508446890.190242,3.081290,1.041215,1.580159,1.014708,-1.729866,-0.222378,0.030445,-0.863019,0.504254,-0.069462,-0.325519,-0.171017,11.246408,-20.009056,24.305866,,,,,,,5
1508446890.210241,3.056737,1.026235,1.581671,0.620981,-0.843950,0.001833,0.043906,-0.855355,0.516179,-0.473304,-0.313713,-0.245809,11.978511,-19.564596,24.317913,,,,,,,5
1508446890.230263,3.052530,1.017508,1.577112,0.329825,-0.167868,0.082991,0.046739,-0.850801,0.523405,-0.545381,-0.314619,-0.306867,11.978511,-19.564596,24.317913,,,,,,,5
1508446890.250277,3.052532,1.013789,1.575999,0.147912,-0.121392,-0.020691,0.047020,-0.848841,0.526553,-0.609199,-0.403066,-0.581515,12.248227,-19.264221,24.423141,,,,,,,5
1508446890.270289,3.043614,1.009663,1.576118,0.222675,-0.562320,-0.026796,0.052055,-0.846653,0.529594,-0.540932,-0.699536,-0.602622,12.418022,-19.126291,24.445795,,,,,,,5
1508446890.290298,3.030381,1.011626,1.578305,-0.442760,-0.550358,-0.048251,0.058874,-0.847695,0.527206,-0.529822,-0.823997,-0.728164,12.418022,-19.126291,24.445795,,,,,,,5
1508446890.310292,3.018202,1.039400,1.585140,-2.004051,-0.038317,0.018040,0.062368,-0.862101,0.502885,-0.116415,-0.650396,-0.741379,12.938625,-19.563614,23.821758,,,,,,,5
1508446890.330322,3.014285,1.095812,1.600249,-3.234060,0.644120,-0.048029,0.058064,-0.889300,0.453623,0.120708,-0.407880,-0.616007,12.797808,-20.749977,22.875175,,,,,,,5
1508446890.350328,3.003481,1.159942,1.620167,-3.035951,0.053817,0.083059,0.054986,-0.916780,0.395589,0.291587,-0.235823,-0.281759,12.618204,-21.851194,21.930012,,,,,,,5
1508446890.370323,2.988649,1.208632,1.625049,-2.053167,-0.874297,0.335361,0.053977,-0.935132,0.350163,0.226205,-0.630984,0.298107,12.614347,-23.370832,20.305210,,,,,,,5
1508446890.390358,2.967628,1.245158,1.616582,-1.767725,-1.711969,0.523414,0.055373,-0.947447,0.315085,0.173722,-0.752169,0.484399,12.818882,-24.005676,19.417080,,,,,,,5
1508446890.410369,2.961085,1.292407,1.590388,-2.632235,-1.291370,0.975500,0.049336,-0.961499,0.270343,0.134914,-0.786059,0.575574,13.166038,-24.861931,18.059870,,,,,,,5
1508446890.430381,2.994669,1.357894,1.546350,-3.326187,0.004288,1.063385,0.030933,-0.977422,0.209021,-0.068027,-0.309443,0.217493,12.922435,-26.399654,15.927589,,,,,,,5
1508446890.450394,3.064954,1.426791,1.481527,-3.337786,0.440250,0.874094,0.010988,-0.989649,0.143087,-0.073350,-0.193014,0.137705,12.315983,-27.662750,14.167144,,,,,,,5
1508446890.470404,-3.081248,1.494199,1.358699,-3.387608,0.921650,0.609990,-0.004615,-0.997068,0.076383,-0.029427,-0.153308,0.233431,12.013301,-28.223194,13.294774,,,,,,,5
1508446890.490409,-2.217799,1.550791,0.513398,-3.293776,0.865102,0.554292,-0.015961,-0.999800,0.012058,0.052491,0.037794,0.306957,11.165627,-29.651157,10.665685,,,,,,,5
1508446890.510429,-0.532487,1.514166,-1.158221,-2.859547,0.643442,0.724874,-0.028735,-0.998397,-0.048764,0.069170,0.111449,0.380993,10.797075,-30.192642,9.457627,,,,,,,5
1508446890.530429,-0.411424,1.458669,-1.265963,-2.594831,0.759794,0.924124,-0.044748,-0.993720,-0.102555,0.063455,0.182410,0.476304,10.224470,-30.840303,7.871148,,,,,,,5
1508446890.550454,-0.374914,1.404216,-1.281127,-2.541870,1.308995,0.924977,-0.060719,-0.986158,-0.154293,0.016972,0.176557,0.585812,9.342464,-31.518831,6.074597,,,,,,,5
1508446890.570464,-0.326194,1.351396,-1.295368,-2.502372,1.983737,0.673469,-0.069742,-0.976028,-0.206168,-0.028448,0.218124,0.644461,8.638466,-31.944830,4.745926,,,,,,,5
1508446890.590471,-0.260122,1.302835,-1.315642,-2.302953,2.492418,0.349688,-0.068098,-0.964313,-0.255859,-0.056735,0.255420,0.692001,8.344812,-32.108849,4.123731,,,,,,,5
1508446890.610488,-0.185335,1.260866,-1.337256,-1.994887,2.799316,0.059658,-0.056203,-0.952355,-0.299770,-0.115260,0.407723,0.678783,7.792367,-32.410355,2.543031,,,,,,,5
1508446890.630481,-0.110562,1.225740,-1.357389,-1.645309,2.707181,-0.108950,-0.037321,-0.941057,-0.336184,-0.094881,0.488679,0.671709,7.684112,-32.487980,1.762053,,,,,,,5
1508446890.650511,-0.053732,1.199434,-1.368769,-1.096717,1.996406,-0.047463,-0.019489,-0.931834,-0.362362,-0.057476,0.512217,0.672405,7.678322,-32.504841,1.448340,,,,,,,5
1508446890.670523,-0.031983,1.187865,-1.363447,-0.224664,0.893237,0.253836,-0.011948,-0.927573,-0.373450,0.095749,0.503379,0.613990,7.614873,-32.538918,0.922791,,,,,,,5
1508446890.690510,-0.055632,1.195242,-1.335299,0.737781,-0.301029,0.644185,-0.020395,-0.930305,-0.366220,0.182992,0.431953,0.615625,7.341452,-32.596725,1.084306,,,,,,,5
1508446890.710547,-0.119204,1.215794,-1.286064,1.234073,-1.237571,0.843486,-0.041336,-0.937646,-0.345126,0.238587,0.400765,0.600070,7.124630,-32.635902,1.325379,,,,,,,5
1508446890.730560,-0.215949,1.238826,-1.221546,1.365361,-2.043792,0.888680,-0.069833,-0.945402,-0.318337,0.362222,0.406263,0.401024,6.623251,-32.710228,1.947463,,,,,,,5
1508446890.750571,-0.325232,1.264173,-1.146231,1.630620,-1.636677,0.694200,-0.096447,-0.953358,-0.286018,0.339550,0.128987,-0.024270,5.921069,-32.767395,2.976214,,,,,,,5
1508446890.770581,-0.401336,1.292585,-1.080260,1.646635,0.128118,0.164359,-0.107286,-0.961548,-0.252813,0.267519,-0.053466,-0.303400,5.921069,-32.767395,2.976214,,,,,,,5
1508446890.790580,-0.391776,1.301366,-1.069513,-0.382874,1.336058,-0.122990,-0.101636,-0.963923,-0.246014,-0.125430,-1.064092,-1.744998,5.607232,-32.656578,4.441369,,,,,,,5
1508446890.810606,-0.321591,1.283958,-1.108939,-1.064327,1.913780,-0.279372,-0.089425,-0.959143,-0.268417,-0.427299,-0.434320,-0.874268,5.550169,-32.689476,4.267655,,,,,,,5
1508446890.830594,-0.235674,1.275633,-1.149275,-0.166689,2.528728,-0.487640,-0.067924,-0.956755,-0.282855,-0.349358,-0.058428,-0.587766,5.570193,-32.713001,4.056072,,,,,,,5
1508446890.850608,-0.174107,1.283173,-1.168323,0.448605,1.740139,-0.188224,-0.049140,-0.958921,-0.279385,-0.062340,0.241620,-0.152423,5.698962,-32.649857,4.373543,,,,,,,5
1508446890.870641,-0.167493,1.290798,-1.152310,0.421540,0.864438,0.317709,-0.046071,-0.961056,-0.272486,0.001134,0.287914,0.082011,5.619944,-32.617405,4.705342,,,,,,,5
1508446890.890641,-0.191736,1.303688,-1.118940,0.968308,-0.087855,0.273589,-0.050298,-0.964538,-0.259107,0.065145,0.424301,0.607556,5.335096,-32.604794,5.107182,,,,,,,5
1508446890.910665,-0.255627,1.338241,-1.082672,2.424407,-2.081813,-0.102402,-0.058274,-0.973081,-0.222976,0.116684,0.059766,1.129333,5.284400,-32.448357,6.066167,,,,,,,5
1508446890.930677,-0.349728,1.405799,-1.011739,3.850886,-0.293764,-0.452353,-0.056279,-0.986419,-0.154307,0.059224,-0.468507,0.750193,5.681030,-31.992083,7.864583,,,,,,,5
1508446890.950686,-0.446178,1.443870,-0.913520,0.566823,0.802915,0.062259,-0.054624,-0.991956,-0.114193,-0.039965,-1.535922,-0.998493,5.859116,-31.536301,9.420812,,,,,,,5
1508446890.970700,-0.320353,1.444372,-0.981625,-0.282693,2.964868,-0.642656,-0.039705,-0.992019,-0.119673,0.183123,-0.448258,0.012526,5.536136,-31.427359,9.964509,,,,,,,5
1508446890.990713,-0.201375,1.434798,-1.077414,-0.867569,0.140729,-0.255664,-0.027118,-0.990767,-0.132840,0.297931,-0.084673,0.343472,5.490792,-31.435476,9.963994,,,,,,,5
1508446891.010722,-0.215034,1.417310,-1.073977,-0.661815,-0.648412,0.431133,-0.032623,-0.988244,-0.149363,0.214278,0.520852,0.925685,5.580682,-31.586731,9.420910,,,,,,,5
1508446891.030736,-0.298838,1.418169,-1.002048,0.832971,-0.588472,0.481848,-0.044761,-0.988375,-0.145297,0.191093,0.863482,0.991641,5.359703,-31.725296,9.077349,,,,,,,5
1508446891.050740,-0.443499,1.456425,-0.857452,2.850067,0.223525,-0.016224,-0.048970,-0.993467,-0.103081,0.098790,0.807004,0.691841,5.229115,-31.564430,9.693409,,,,,,,5
1508446891.070759,-0.967826,1.517592,-0.331260,4.023154,-0.313574,-0.319982,-0.043801,-0.998585,-0.030157,0.056939,0.283650,0.241171,5.232962,-30.916285,11.593899,,,,,,,5
1508446891.090771,-2.419152,1.503562,1.086499,3.692963,-2.682977,0.425081,-0.044423,-0.997741,0.050401,-0.118587,-0.464509,-0.529481,5.676093,-29.588438,14.488802,,,,,,,5
1508446891.110782,-2.650043,1.447352,1.263291,2.243706,-2.281834,0.996901,-0.058117,-0.992390,0.108553,-0.065372,-0.369685,0.226774,6.100144,-28.719990,15.986544,,,,,,,5
1508446891.130793,-2.694902,1.413544,1.281667,1.247503,-0.900334,0.373236,-0.067651,-0.987661,0.141239,-0.067344,-0.200907,0.341396,6.100144,-28.719990,15.986544,,,,,,,5
1508446891.150809,-2.760496,1.393546,1.335107,1.113049,-0.586601,-0.155750,-0.065581,-0.984332,0.163674,-0.076295,0.184314,0.123970,6.367754,-27.854406,17.355196,,,,,,,5
1508446891.170818,-2.834086,1.370975,1.399281,1.341932,-0.481582,-0.164429,-0.060081,-0.980102,0.189183,-0.080468,0.292083,0.021357,6.664368,-27.404173,17.950394,,,,,,,5
1508446891.190815,-2.888131,1.345088,1.447166,1.416254,-0.279559,-0.101907,-0.056119,-0.974636,0.216647,-0.127185,0.368541,-0.056353,6.791037,-27.148674,18.287987,,,,,,,5
1508446891.210840,-2.931626,1.315311,1.485277,1.639807,-0.392423,-0.118234,-0.052673,-0.967541,0.247165,-0.114670,0.023815,-0.030764,7.056406,-26.302691,19.390585,,,,,,,5
1508446891.230853,-2.973995,1.282585,1.520062,1.676106,-0.429783,-0.163746,-0.047415,-0.958754,0.280255,-0.118738,-0.064348,-0.053586,7.300981,-25.615076,20.203529,,,,,,,5
1508446891.250864,-3.003506,1.253738,1.544050,1.325607,-0.262582,-0.098369,-0.042915,-0.950157,0.308805,-0.119637,-0.123055,-0.128812,7.481928,-25.102322,20.772896,,,,,,,5
1508446891.270877,-3.015930,1.232692,1.554365,0.929228,-0.045287,0.007127,-0.041573,-0.943385,0.329084,-0.015983,-0.051320,-0.192640,7.635424,-24.445894,21.487617,,,,,,,5
1508446891.290888,-3.018603,1.216565,1.559799,0.769406,0.222457,-0.006767,-0.042554,-0.937914,0.344249,0.070538,0.011797,-0.087733,7.605771,-24.078182,21.909187,,,,,,,5
1508446891.310899,-3.020094,1.200958,1.565953,0.828009,0.128950,-0.004224,-0.043810,-0.932386,0.358800,0.120165,0.036329,-0.077993,7.555219,-23.908636,22.111420,,,,,,,5
1508446891.330894,-3.029367,1.180501,1.570429,1.179595,-0.560438,0.067365,-0.042608,-0.924797,0.378068,0.158071,0.083549,-0.228455,7.536122,-23.314617,22.743231,,,,,,,5
1508446891.350911,-3.054732,1.151973,1.571977,1.529216,-1.565350,0.135505,-0.035281,-0.913568,0.405153,0.118273,0.062036,-0.352540,7.786513,-22.881729,23.095797,,,,,,,5
1508446891.370934,-3.091633,1.121082,1.570108,1.496439,-2.050795,0.142321,-0.021709,-0.900571,0.434166,0.115947,0.039365,-0.382698,8.283534,-22.366894,23.424864,,,,,,,5
1508446891.390949,-3.129081,1.094317,1.567116,1.222839,-1.925499,0.083726,-0.005738,-0.888615,0.458618,0.172975,-0.137386,-0.306442,9.623389,-21.371708,23.838196,,,,,,,5
1508446891.410939,3.123009,1.074393,1.564662,0.838322,-1.482459,0.039362,0.008850,-0.879301,0.476184,0.078232,-0.324556,-0.162479,10.256672,-20.974104,23.927113,,,,,,,5
1508446891.430970,3.101927,1.063149,1.563000,0.425986,-0.914965,0.036387,0.019277,-0.873891,0.485740,-0.057409,-0.372997,-0.097709,10.775731,-20.679535,23.955366,,,,,,,5
1508446891.450983,3.093849,1.057197,1.559866,0.248890,-0.312436,0.063064,0.023448,-0.870982,0.490756,-0.555644,-0.267675,-0.053729,11.348907,-20.396341,23.933464,,,,,,,5
1508446891.470994,3.090427,1.052866,1.559591,0.220292,-0.220389,-0.048900,0.025320,-0.868846,0.494435,-0.698218,-0.376729,-0.525898,11.437833,-20.294647,23.977539,,,,,,,5
1508446891.490983,3.078764,1.047643,1.562227,0.251395,-0.549851,-0.084029,0.031369,-0.866248,0.498629,-0.662961,-0.469415,-0.655626,11.437833,-20.294647,23.977539,,,,,,,5
1508446891.511019,3.069300,1.049028,1.563786,-0.377117,-0.292068,0.020647,0.036000,-0.866939,0.497112,-0.575719,-0.794941,-0.841350,11.901542,-20.103455,23.912834,,,,,,,5
1508446891.531030,3.071475,1.071411,1.561119,-1.586160,0.198926,0.197368,0.033551,-0.877877,0.477709,-0.591122,-0.845847,-0.875033,11.946129,-20.351885,23.679314,,,,,,,5
1508446891.551041,3.080967,1.118710,1.564382,-2.790270,0.841395,-0.053782,0.026468,-0.899538,0.436041,-0.237069,-0.695342,-0.837408,11.815947,-20.943571,23.224327,,,,,,,5
1508446891.571032,3.075948,1.181945,1.587439,-3.266687,0.621846,-0.328326,0.024870,-0.925345,0.378309,0.245272,-0.344476,-0.602934,11.477776,-22.143112,22.261230,,,,,,,5
1508446891.591065,3.061118,1.240058,1.603825,-2.619615,-0.358520,0.120272,0.026105,-0.945803,0.323690,0.405978,-0.232557,0.058344,11.334082,-24.065533,20.248652,,,,,,,5
1508446891.611070,3.051040,1.281480,1.593475,-1.744346,-1.385326,0.386518,0.025799,-0.958439,0.284128,0.413746,-0.379436,0.290137,11.387078,-24.584547,19.584522,,,,,,,5
1508446891.631065,3.035360,1.316098,1.570441,-1.843401,-2.080338,0.604512,0.026715,-0.967739,0.250534,0.337573,-0.832004,0.634644,11.907837,-25.727697,17.717455,,,,,,,5
1508446891.651101,3.073272,1.367660,1.499238,-2.924776,-1.037341,1.290588,0.013772,-0.979439,0.201272,0.298850,-0.836815,0.665214,12.077424,-26.686964,16.110893,,,,,,,5
1508446891.671111,-3.048262,1.436515,1.334800,-3.630326,0.451247,1.258207,-0.012477,-0.990998,0.133296,-0.014348,-0.423797,0.470128,11.665504,-27.661551,14.709648,,,,,,,5
1508446891.691125,-2.664920,1.501438,0.962664,-3.493106,0.648829,0.668556,-0.031798,-0.997596,0.061577,-0.254869,-0.137063,0.071861,10.702883,-29.191740,12.284534,,,,,,,5
1508446891.711136,-1.482693,1.531229,-0.208486,-3.081373,0.613171,0.255612,-0.039404,-0.999217,-0.003481,-0.234263,-0.067677,0.154741,10.361311,-29.863895,10.881640,,,,,,,5
1508446891.731147,-0.642109,1.493123,-1.037666,-2.831600,0.634088,0.502581,-0.046471,-0.996985,-0.062141,0.002556,0.062247,0.403618,10.065592,-30.533319,9.166207,,,,,,,5
1508446891.751133,-0.469652,1.438895,-1.197208,-2.672488,0.726473,0.819129,-0.059522,-0.991314,-0.117279,0.106596,0.199764,0.535553,9.473732,-31.249081,7.166753,,,,,,,5
1508446891.771168,-0.416799,1.385961,-1.235027,-2.414934,0.798732,0.863899,-0.074403,-0.982966,-0.168051,0.144074,0.300517,0.546820,8.999675,-31.625599,6.037093,,,,,,,5
1508446891.791182,-0.384816,1.337905,-1.249175,-2.192312,0.996893,0.756218,-0.086637,-0.973003,-0.213914,0.142225,0.312938,0.581864,8.522551,-31.938768,4.990016,,,,,,,5
1508446891.811195,-0.349466,1.294026,-1.260001,-2.035730,1.413761,0.600244,-0.093560,-0.961943,-0.256734,0.058602,0.335097,0.628972,7.686298,-32.383049,3.142919,,,,,,,5
1508446891.831196,-0.304465,1.255030,-1.271558,-1.798126,1.852670,0.380005,-0.093096,-0.950559,-0.296263,-0.017423,0.381574,0.647489,7.264137,-32.563972,2.106922,,,,,,,5
1508446891.851218,-0.251822,1.223829,-1.283774,-1.387969,2.149151,0.164278,-0.084729,-0.940408,-0.329323,-0.059497,0.409646,0.674416,7.114427,-32.622253,1.671123,,,,,,,5
1508446891.871231,-0.199113,1.201900,-1.293275,-0.935255,2.170805,0.045585,-0.071324,-0.932726,-0.353462,-0.090602,0.490114,0.735298,6.933559,-32.687859,1.024147,,,,,,,5
1508446891.891242,-0.153421,1.189908,-1.298718,-0.388820,1.909004,-0.005469,-0.056810,-0.928335,-0.367379,0.028719,0.531164,0.789880,6.843613,-32.717049,0.615503,,,,,,,5
1508446891.911253,-0.123628,1.191214,-1.297512,0.354605,1.265018,0.045965,-0.045692,-0.928820,-0.367704,0.058280,0.541368,0.793593,6.843613,-32.717049,0.615503,,,,,,,5
1508446891.931251,-0.123279,1.206883,-1.283272,1.066008,0.295400,0.236370,-0.043768,-0.934511,-0.353232,0.222464,0.528475,0.675239,6.787742,-32.719299,0.996512,,,,,,,5
1508446891.951277,-0.165064,1.235444,-1.251047,1.760657,-1.150222,0.401787,-0.054077,-0.944294,-0.324629,0.368804,0.503590,0.453382,6.537923,-32.715096,2.144120,,,,,,,5
1508446891.971269,-0.257733,1.278165,-1.192092,2.607535,-2.051435,0.428326,-0.073529,-0.957488,-0.278945,0.434109,0.445052,0.314895,6.433520,-32.697430,2.665883,,,,,,,5
1508446891.991303,-0.390985,1.333863,-1.093996,3.240030,-1.657047,0.295428,-0.089453,-0.972062,-0.217009,0.460546,-0.347914,-0.471452,6.271685,-32.467289,4.915308,,,,,,,5
1508446892.011313,-0.533279,1.353735,-0.972766,-0.128605,-0.798195,1.139233,-0.109481,-0.976534,-0.185457,0.198806,-1.404188,-1.797835,6.175982,-32.278877,6.127845,,,,,,,5
1508446892.031314,-0.542045,1.323771,-0.950313,-1.196820,1.504810,0.637050,-0.126145,-0.969644,-0.209470,-0.652099,-0.710867,-1.062549,5.515068,-32.446178,5.869279,,,,,,,5
1508446892.051322,-0.466699,1.315141,-0.985580,-0.112332,2.406220,-0.558607,-0.113781,-0.967498,-0.225836,-0.499409,0.209441,-0.545328,5.047588,-32.616901,5.317775,,,,,,,5
1508446892.071348,-0.368663,1.330248,-1.026078,0.657462,3.040489,-0.729585,-0.085853,-0.971207,-0.222228,-0.288201,0.434937,-0.231980,5.207365,-32.510262,5.795287,,,,,,,5
1508446892.091359,-0.300710,1.343521,-1.042228,0.562208,2.263612,-0.226270,-0.066740,-0.974284,-0.215212,-0.202486,0.354396,-0.127515,5.245316,-32.437382,6.158102,,,,,,,5
1508446892.111372,-0.286622,1.363718,-1.035564,1.326744,0.081135,-0.238645,-0.058127,-0.978636,-0.197214,0.030859,0.033277,0.597605,5.127987,-32.252625,7.147798,,,,,,,5
1508446892.131367,-0.351613,1.401734,-0.996376,2.212586,-1.971780,-0.244598,-0.057950,-0.985743,-0.157964,0.050458,-0.201177,1.070180,5.306497,-32.055672,7.867284,,,,,,,5
1508446892.151394,-0.488843,1.442897,-0.895612,1.973611,-1.493139,-0.112051,-0.059898,-0.991832,-0.112611,0.229958,-0.449208,0.899706,5.657948,-31.763391,8.757496,,,,,,,5
1508446892.171408,-0.468963,1.455158,-0.911081,-0.493119,1.455801,-0.511361,-0.052148,-0.993321,-0.102924,0.616219,-0.488124,-0.460217,6.149668,-31.304451,9.991606,,,,,,,5
1508446892.191395,-0.392286,1.445961,-0.960823,-0.192780,0.703049,0.266748,-0.047601,-0.992218,-0.115053,0.427606,-0.180588,-0.043134,6.080580,-31.368084,9.833053,,,,,,,5
1508446892.211430,-0.532075,1.449469,-0.833754,0.849772,-1.352748,0.695450,-0.061401,-0.992649,-0.104298,0.317718,0.264622,0.501851,5.858289,-31.419033,9.805305,,,,,,,5
1508446892.231442,-0.736780,1.462866,-0.656591,1.248818,-1.176327,0.169700,-0.072378,-0.994181,-0.079782,0.180594,0.627268,0.870797,5.662460,-31.350323,10.134741,,,,,,,5
1508446892.251454,-0.944514,1.487550,-0.449295,1.838841,0.704687,-0.455401,-0.067370,-0.996537,-0.048738,-0.072782,0.578446,0.868806,5.860106,-30.941368,11.220960,,,,,,,5
1508446892.271440,-1.551264,1.512221,0.187013,2.821938,1.490964,-0.263555,-0.058531,-0.998285,-0.001143,-0.124911,0.362253,0.629378,5.860106,-30.941368,11.220960,,,,,,,5
1508446892.291465,-2.300676,1.483757,0.930586,2.779265,-1.960096,0.770544,-0.064784,-0.996215,0.057963,-0.439320,-0.404466,-0.609247,5.674005,-29.557690,14.552241,,,,,,,5
1508446892.311490,-2.514800,1.435998,1.091601,2.158769,-2.227710,0.703464,-0.078827,-0.990928,0.108845,-0.225464,-0.339318,-0.010532,5.921537,-28.904036,15.719772,,,,,,,5
1508446892.331498,-2.658606,1.406146,1.221808,1.492102,-0.202190,-0.406776,-0.076123,-0.986476,0.145158,-0.199817,-0.249913,0.140883,6.062847,-28.601820,16.211010,,,,,,,5
1508446892.351493,-2.764926,1.390086,1.325545,0.941645,-0.365368,-0.369918,-0.066108,-0.983716,0.167129,-0.001259,0.146787,0.157593,6.519883,-27.820036,17.353840,,,,,,,5
1508446892.371408,-2.814362,1.369629,1.361063,1.217708,-0.897792,0.222891,-0.064224,-0.979834,0.189210,0.041000,0.221488,0.092269,6.737820,-27.545227,17.705408,,,,,,,5
1508446892.391419,-2.854616,1.339164,1.381246,1.683125,-1.088249,0.207423,-0.064980,-0.973293,0.220178,0.116234,0.299862,-0.007135,6.945233,-27.114319,18.281044,,,,,,,5
1508446892.411433,-2.911430,1.304151,1.417117,1.819927,-1.062817,-0.093816,-0.060113,-0.964660,0.256548,0.163278,0.031662,-0.030108,7.373747,-26.323772,19.243336,,,,,,,5
1508446892.431443,-2.963838,1.272550,1.454813,1.504748,-0.635992,-0.207893,-0.051957,-0.955853,0.289214,0.056779,-0.117679,-0.005157,7.819683,-25.618561,20.004025,,,,,,,5
1508446892.451438,-2.990768,1.248752,1.473522,1.068796,-0.380117,-0.012191,-0.047556,-0.948590,0.312913,-0.016836,-0.100299,-0.034166,7.986770,-25.312180,20.325457,,,,,,,5
1508446892.471468,-3.004591,1.228704,1.481343,1.047438,-0.301444,0.001534,-0.045815,-0.942055,0.332315,-0.102836,0.054390,-0.115640,8.234562,-24.636496,21.044100,,,,,,,5
1508446892.491477,-3.023833,1.204939,1.495956,1.292601,-0.262849,-0.164642,-0.042031,-0.933817,0.355273,-0.025855,0.105540,-0.130145,8.340743,-24.276463,21.417389,,,,,,,5
1508446892.511489,-3.046120,1.179243,1.513807,1.301174,-0.335129,-0.175274,-0.036380,-0.924317,0.379887,0.031756,0.013627,-0.148793,8.484268,-23.838892,21.848194,,,,,,,5
1508446892.531503,-3.067654,1.153887,1.524653,1.269247,-0.752223,-0.065119,-0.029913,-0.914345,0.403830,0.037085,-0.126015,-0.207129,8.865506,-22.931709,22.653004,,,,,,,5
1508446892.551514,-3.092995,1.130051,1.530577,1.124588,-1.087800,-0.052725,-0.020724,-0.904434,0.426110,0.002124,-0.151154,-0.253640,9.181181,-22.496449,22.961596,,,,,,,5
1508446892.571525,-3.118988,1.109204,1.533527,1.041522,-1.229935,-0.003476,-0.010067,-0.895345,0.445260,-0.080906,-0.009105,-0.356515,9.709784,-21.977337,23.245125,,,,,,,5
1508446892.591516,3.134873,1.085428,1.534192,1.277063,-1.569068,-0.039054,0.003135,-0.884503,0.466523,0.020150,-0.071490,-0.461503,10.480564,-21.328993,23.512781,,,,,,,5
1508446892.611549,3.099704,1.061502,1.537317,1.052513,-1.580846,-0.099477,0.020417,-0.873089,0.487133,0.100325,-0.325931,-0.395779,11.076175,-20.865337,23.655340,,,,,,,5
1508446892.631552,3.076050,1.049273,1.533644,0.327822,-1.162058,0.159979,0.032630,-0.867061,0.497131,-0.064551,-0.480274,-0.286591,11.662712,-20.479931,23.710182,,,,,,,5
1508446892.651547,3.066761,1.051130,1.527512,-0.278283,-0.450158,0.107601,0.037126,-0.867985,0.495201,-0.497987,-0.327984,-0.249855,12.328632,-20.349249,23.484718,,,,,,,5
1508446892.671580,3.062129,1.058951,1.529868,-0.408045,-0.022672,-0.093319,0.038879,-0.871842,0.488241,-0.613983,-0.318496,-0.547919,12.429886,-20.524019,23.278351,,,,,,,5
1508446892.691582,3.055374,1.065697,1.533799,-0.320743,-0.289082,-0.012944,0.041669,-0.875126,0.482097,-0.622678,-0.363079,-0.731868,12.458878,-20.603561,23.192429,,,,,,,5
1508446892.711609,3.047523,1.078213,1.532920,-0.918196,-0.447697,0.106579,0.044420,-0.881114,0.470812,-0.551973,-0.606251,-0.846209,12.671987,-20.900568,22.808025,,,,,,,5
1508446892.731622,3.041087,1.109901,1.537014,-2.000072,0.099615,0.003301,0.044625,-0.895655,0.442506,-0.206795,-0.631811,-0.805543,12.759763,-21.514389,22.179691,,,,,,,5
1508446892.751628,3.030968,1.161511,1.559507,-2.917614,0.732078,-0.331736,0.043934,-0.917406,0.395521,0.050655,-0.589797,-0.734175,12.725920,-21.979630,21.738583,,,,,,,5
1508446892.771645,3.005371,1.221808,1.599785,-3.070837,0.362637,-0.283237,0.046437,-0.939719,0.338779,0.409694,-0.276742,-0.206623,12.551182,-23.679489,19.984213,,,,,,,5
1508446892.791657,2.987620,1.275845,1.618373,-2.443373,-0.266616,0.317723,0.044582,-0.956816,0.287254,0.351384,-0.462236,0.197182,12.517245,-24.776314,18.629866,,,,,,,5
1508446892.811666,2.975244,1.318861,1.609266,-2.006512,-1.571776,0.510932,0.041276,-0.968432,0.245838,0.281325,-0.664716,0.338879,12.500977,-25.252718,17.990133,,,,,,,5
1508446892.831680,2.966825,1.368127,1.578651,-2.734387,-1.857690,0.965741,0.034999,-0.979533,0.198219,0.130375,-1.063406,0.554726,12.840440,-26.563795,15.719635,,,,,,,5
1508446892.851671,3.027403,1.443095,1.495952,-4.060198,-0.431295,1.281688,0.014511,-0.991857,0.126525,-0.084823,-0.685145,0.458680,12.752249,-27.468037,14.160024,,,,,,,5
1508446892.871701,-2.973255,1.524820,1.218178,-3.876886,0.435314,0.933555,-0.007700,-0.998943,0.045311,-0.206029,-0.429966,0.427681,12.311244,-28.505819,12.388325,,,,,,,5
1508446892.891715,-0.765287,1.540214,-0.986754,-3.096629,0.045815,0.552135,-0.021182,-0.999532,-0.022052,-0.262219,-0.058054,0.239703,11.440540,-30.034975,9.199644,,,,,,,5
1508446892.911725,-0.387367,1.483939,-1.363285,-2.876491,0.176764,0.665849,-0.032769,-0.996230,-0.080321,-0.058463,-0.054856,0.461088,11.092155,-30.654224,7.409573,,,,,,,5
1508446892.931738,-0.338921,1.423845,-1.403731,-2.891011,0.553818,0.946042,-0.048681,-0.989222,-0.138094,0.063131,0.002848,0.553697,10.859988,-30.932512,6.546711,,,,,,,5
1508446892.951751,-0.329752,1.363899,-1.397113,-2.728515,0.924936,1.074369,-0.066518,-0.978673,-0.194357,0.079351,0.174519,0.586493,9.869432,-31.684475,4.038253,,,,,,,5
1508446892.971761,-0.322525,1.308695,-1.380174,-2.447601,1.351776,1.054651,-0.082128,-0.965848,-0.245750,0.043890,0.347165,0.655128,9.112150,-32.062073,2.571250,,,,,,,5
1508446892.991774,-0.304163,1.258232,-1.363887,-2.270972,1.918639,0.960710,-0.092095,-0.951548,-0.293385,0.003899,0.360209,0.710133,9.112150,-32.062073,2.571250,,,,,,,5
1508446893.011777,-0.271033,1.211280,-1.351411,-2.132524,2.416239,0.800388,-0.094192,-0.936067,-0.338978,-0.223389,0.444917,0.662541,7.775715,-32.513260,0.213218,,,,,,,5
1508446893.031798,-0.228759,1.170383,-1.340105,-1.773633,2.742778,0.666246,-0.088394,-0.920900,-0.379644,-0.341965,0.479494,0.655553,7.304788,-32.615105,-0.716882,,,,,,,5
1508446893.051811,-0.186091,1.138303,-1.327230,-1.363409,2.661313,0.520506,-0.077548,-0.907923,-0.411900,-0.356915,0.484477,0.668263,7.116184,-32.646793,-1.079766,,,,,,,5
1508446893.071822,-0.144494,1.116014,-1.319604,-0.875055,2.201187,0.251615,-0.063251,-0.898357,-0.434689,-0.023770,0.478587,0.679379,6.768452,-32.688103,-1.815237,,,,,,,5
1508446893.091833,-0.120865,1.106542,-1.310752,-0.162326,1.129162,0.321637,-0.053986,-0.894156,-0.444489,0.151093,0.440985,0.608643,6.681646,-32.696777,-1.973710,,,,,,,5
1508446893.111843,-0.138115,1.112689,-1.284473,0.725698,-0.141696,0.670854,-0.060888,-0.896891,-0.438040,0.223302,0.430735,0.571753,6.581945,-32.719627,-1.929503,,,,,,,5
1508446893.131857,-0.192578,1.135435,-1.241153,1.561916,-1.103371,0.721748,-0.080716,-0.906718,-0.413942,0.418226,0.428095,0.525331,5.918814,-32.882492,-1.152561,,,,,,,5
1508446893.151853,-0.265009,1.167934,-1.193738,1.850121,-1.595275,0.449051,-0.102686,-0.919943,-0.378366,0.514917,0.450338,0.366953,5.480074,-32.978184,-0.165554,,,,,,,5
1508446893.171878,-0.328140,1.200738,-1.156230,1.722840,-1.170616,0.047978,-0.116560,-0.932306,-0.342372,0.562254,0.428248,0.246394,5.350298,-32.997990,0.355025,,,,,,,5
1508446893.191893,-0.364096,1.231112,-1.127467,1.504067,0.008246,-0.060465,-0.118650,-0.942860,-0.311347,0.530286,-0.019039,-0.301568,5.327461,-32.950371,1.873558,,,,,,,5
1508446893.211878,-0.388908,1.246126,-1.095821,0.496875,0.398153,0.403198,-0.120956,-0.947756,-0.295175,0.028091,-0.712553,-1.020407,5.311255,-32.910320,2.514067,,,,,,,5
1508446893.231914,-0.415481,1.244762,-1.054757,0.140613,0.660687,0.692196,-0.129278,-0.947320,-0.293040,-0.186472,-0.913032,-1.074728,5.097724,-32.921082,2.799048,,,,,,,5
1508446893.251928,-0.431750,1.247750,-1.021043,0.523524,0.987084,0.217533,-0.132843,-0.948273,-0.288326,-0.346801,-0.232193,-0.752202,4.461081,-32.984482,3.121184,,,,,,,5
1508446893.271938,-0.422989,1.261853,-1.001131,0.860247,1.541425,-0.091238,-0.124810,-0.952655,-0.277255,-0.233589,0.203769,-0.408384,4.332492,-32.943680,3.682732,,,,,,,5
1508446893.291950,-0.406844,1.276360,-0.983837,0.693927,1.660814,0.000112,-0.114836,-0.956966,-0.266513,-0.171510,0.315135,-0.300367,4.303734,-32.906651,4.031053,,,,,,,5
1508446893.311960,-0.406262,1.290970,-0.959022,1.005318,0.720455,-0.008676,-0.109144,-0.961103,-0.253709,-0.018084,0.168623,0.282197,4.096613,-32.806744,4.955234,,,,,,,5
1508446893.331973,-0.468615,1.325093,-0.904532,2.417100,-1.136314,-0.045275,-0.109859,-0.969966,-0.217016,-0.104451,-0.116581,0.383123,4.146582,-32.638363,5.929780,,,,,,,5
1508446893.351962,-0.637961,1.357112,-0.767081,1.521441,-1.662869,0.832801,-0.126295,-0.977256,-0.170352,-0.511980,-1.208184,-0.234097,4.220409,-32.480907,6.693127,,,,,,,5
1508446893.371976,-0.633909,1.363798,-0.736459,0.084003,3.993456,-0.767645,-0.121731,-0.978652,-0.165594,0.000943,-0.883103,0.058508,3.848688,-32.253052,7.908693,,,,,,,5
1508446893.392010,-0.396307,1.370922,-0.897673,-0.979683,2.969894,-1.688622,-0.076642,-0.980092,-0.183158,0.286313,-0.033397,0.559897,4.025926,-32.195454,8.053806,,,,,,,5
1508446893.412020,-0.270361,1.339733,-1.019109,-2.340455,-1.056848,0.085871,-0.061165,-0.973423,-0.220693,0.276649,0.217289,0.682714,4.360072,-32.208599,7.824006,,,,,,,5
1508446893.432034,-0.373483,1.295353,-0.966202,-1.092315,-3.193283,1.767271,-0.099232,-0.962305,-0.253224,0.509847,1.016779,1.313908,4.260299,-32.683014,5.593710,,,,,,,5
1508446893.452045,-0.548393,1.312432,-0.839318,2.981979,-1.820119,0.439068,-0.133196,-0.966809,-0.218034,0.682604,1.521359,1.268357,3.645950,-32.742680,5.678301,,,,,,,5
1508446893.472039,-0.733675,1.387833,-0.660251,4.613176,-0.040194,-1.290172,-0.121831,-0.983309,-0.135133,0.599385,1.265978,0.837816,3.670139,-32.545834,6.702088,,,,,,,5
1508446893.492070,-1.132339,1.471815,-0.255386,4.633928,0.065940,-1.618927,-0.089472,-0.995105,-0.041953,0.389597,-0.126950,0.228919,4.889311,-31.168098,11.057275,,,,,,,5
1508446893.512079,-2.111286,1.487865,0.711557,3.872098,-1.461867,-0.266692,-0.071028,-0.996563,0.042624,0.256621,-0.618580,-0.138709,5.579818,-30.248121,13.097171,,,,,,,5
1508446893.532090,-2.471354,1.431647,1.030780,2.755649,-1.989650,1.441126,-0.086157,-0.990334,0.108696,-0.001825,-1.329047,-0.313072,6.000279,-29.422440,14.694754,,,,,,,5
1508446893.552105,-2.515528,1.385934,1.057730,1.412235,-0.231008,0.769095,-0.107706,-0.982962,0.148950,-0.121893,-0.291605,0.584174,5.684357,-28.432503,16.640312,,,,,,,5
1508446893.572107,-2.570541,1.377197,1.119235,0.410486,0.416526,-0.735714,-0.103991,-0.981318,0.161866,-0.169141,0.196131,0.272186,5.565764,-28.131853,17.182556,,,,,,,5
1508446893.592127,-2.664736,1.374401,1.221649,0.873590,0.123493,-0.617121,-0.089565,-0.980776,0.173366,-0.218663,0.287966,0.103077,5.718913,-28.015533,17.321751,,,,,,,5
1508446893.612140,-2.747628,1.350257,1.295270,1.724776,-0.909410,0.027971,-0.083970,-0.975780,0.201998,-0.233977,0.474910,-0.303210,6.180488,-27.394226,18.137726,,,,,,,5
1508446893.632150,-2.816483,1.311724,1.347983,2.093072,-0.803264,0.058774,-0.081828,-0.966628,0.242764,-0.161183,0.083465,-0.075863,6.473295,-26.686382,19.067053,,,,,,,5
1508446893.652161,-2.872030,1.276427,1.391223,1.650301,-0.630369,-0.084231,-0.077266,-0.956985,0.279659,-0.129017,-0.174332,0.036640,6.691552,-26.096714,19.794037,,,,,,,5
1508446893.672179,-2.905005,1.250786,1.413788,1.181545,-0.605179,0.060983,-0.073733,-0.949232,0.305814,-0.110868,-0.132219,-0.074841,7.027760,-25.321049,20.665775,,,,,,,5
1508446893.692186,-2.929255,1.227589,1.422415,1.231597,-0.927848,0.148461,-0.070918,-0.941680,0.328952,-0.036946,0.040740,-0.305850,7.280644,-24.854679,21.138973,,,,,,,5
1508446893.712180,-2.959417,1.199296,1.430137,1.490527,-1.257372,0.130119,-0.065767,-0.931784,0.357006,0.037889,0.061270,-0.348995,7.450834,-24.595383,21.381565,,,,,,,5
1508446893.732205,-2.994612,1.170839,1.437693,1.346991,-1.494368,0.080841,-0.057025,-0.921078,0.385180,0.199145,-0.038837,-0.209414,7.913797,-23.984764,21.902557,,,,,,,5
1508446893.752222,-3.028568,1.146643,1.441104,1.141488,-1.526083,0.094028,-0.046416,-0.911388,0.408923,0.227126,-0.072163,-0.223239,8.683725,-23.257126,22.390133,,,,,,,5
1508446893.772233,-3.059460,1.124878,1.443255,1.073409,-1.449765,0.034962,-0.035383,-0.902215,0.429832,0.238661,-0.007407,-0.284737,9.165352,-22.883224,22.582592,,,,,,,5
1508446893.792246,-3.095657,1.101274,1.445552,1.282337,-1.863185,0.017209,-0.020777,-0.891785,0.451983,-0.104788,0.035141,-0.367373,9.807016,-22.400497,22.796038,,,,,,,5
1508446893.812257,-3.135425,1.073473,1.447561,1.399507,-1.825137,-0.021191,-0.002942,-0.878863,0.477065,-0.212527,-0.179761,-0.225448,11.070021,-21.508959,23.074629,,,,,,,5
1508446893.832268,3.120319,1.050859,1.447753,0.876323,-1.006896,-0.030214,0.010569,-0.867851,0.496713,-0.261988,-0.302605,-0.143045,11.479502,-21.190212,23.169270,,,,,,,5
1508446893.852281,3.112422,1.041275,1.448935,0.305140,-0.062168,-0.026761,0.014733,-0.863049,0.504905,-0.380318,-0.382297,-0.047416,12.089272,-20.622280,23.370712,,,,,,,5
1508446893.872273,3.109387,1.037435,1.450379,0.149853,-0.177035,-0.088820,0.016372,-0.861103,0.508167,-0.371718,-0.252285,-0.285495,12.128809,-20.508247,23.450436,,,,,,,5
1508446893.892304,3.096967,1.034958,1.457466,0.107591,-0.420698,-0.206475,0.022777,-0.859841,0.510054,-0.293986,-0.197700,-0.410719,12.199820,-20.461329,23.454584,,,,,,,5
1508446893.912318,3.081559,1.032973,1.459632,0.060464,-0.818092,0.066474,0.030735,-0.858826,0.511345,-0.177036,-0.482773,-0.852058,12.634962,-20.327755,23.340080,,,,,,,5
1508446893.932306,3.073775,1.041850,1.452760,-0.835535,-0.423856,0.265937,0.034196,-0.863339,0.503464,-0.545060,-0.645282,-0.938141,12.935997,-20.463266,23.055017,,,,,,,5
1508446893.952338,3.090295,1.072442,1.438335,-1.868201,0.574014,0.510512,0.024509,-0.878371,0.477352,-0.751788,-0.729906,-1.018321,12.942062,-20.727081,22.814695,,,,,,,5
1508446893.972348,3.112878,1.119575,1.432780,-2.580737,0.844386,-0.049897,0.012520,-0.899915,0.435885,-0.054069,-0.666155,-0.831042,12.282931,-22.183241,21.786524,,,,,,,5
1508446893.992363,3.092960,1.173571,1.457223,-2.736938,-0.396793,-0.484411,0.018807,-0.922138,0.386404,0.315025,-0.430645,0.033121,12.233232,-23.249424,20.674416,,,,,,,5
1508446894.012374,3.056786,1.227166,1.476965,-2.645986,-1.096049,0.067348,0.028538,-0.941538,0.335696,0.291164,-0.353674,0.282193,12.445283,-23.750265,19.966442,,,,,,,5
1508446894.032376,3.039169,1.276199,1.464342,-2.256941,-1.685015,0.608875,0.029687,-0.956919,0.288833,0.278113,-0.650945,0.355149,12.851323,-24.766476,18.414242,,,,,,,5
1508446894.052398,3.065523,1.322854,1.406780,-2.407338,-1.050815,1.189463,0.018650,-0.969419,0.244700,-0.272694,-0.723482,0.530294,13.128532,-26.222725,16.050838,,,,,,,5
1508446894.072409,-3.110030,1.384261,1.301120,-3.390970,0.951940,1.114715,-0.005853,-0.982653,0.185363,-0.531882,-0.384474,0.308350,12.760079,-27.079790,14.882355,,,,,,,5
1508446894.092421,-2.910297,1.450615,1.128867,-3.324648,1.568948,0.762234,-0.027484,-0.992787,0.116700,-0.658002,-0.252269,0.047408,11.662333,-28.570688,12.857873,,,,,,,5
1508446894.112434,-2.480115,1.502686,0.727408,-3.047299,1.612347,0.455780,-0.041806,-0.997681,0.053703,-0.576266,-0.228927,0.123650,11.078114,-29.284145,11.718933,,,,,,,5
1508446894.132446,-1.333037,1.522958,-0.381749,-3.254482,2.109307,0.060491,-0.046474,-0.998856,-0.011263,-0.111027,-0.291488,0.443285,10.605156,-29.870739,10.624910,,,,,,,5
1508446894.152432,-0.523430,1.481288,-1.151156,-3.275782,2.055209,0.080503,-0.044681,-0.995997,-0.077421,0.217548,0.000971,0.496610,9.944971,-30.818443,8.303023,,,,,,,5
1508446894.172470,-0.301807,1.420549,-1.332791,-3.147307,2.054799,0.285994,-0.044493,-0.988734,-0.142917,0.277723,0.290965,0.516788,9.549841,-31.321667,6.735937,,,,,,,5
1508446894.192482,-0.211397,1.361996,-1.385482,-2.801105,1.821881,0.262057,-0.043494,-0.978280,-0.202672,0.293982,0.378442,0.562871,9.327967,-31.547165,5.948487,,,,,,,5
1508446894.212494,-0.157291,1.311385,-1.406923,-2.380410,1.585583,0.209995,-0.040181,-0.966541,-0.253345,0.226247,0.472126,0.606906,8.824384,-32.018410,3.817154,,,,,,,5
1508446894.232495,-0.122574,1.268260,-1.411259,-1.999284,1.485730,0.269497,-0.036429,-0.954584,-0.295707,0.094229,0.438196,0.627052,8.639947,-32.162659,2.921247,,,,,,,5
,,,,,,,,,,,,,,,,42.293338,-71.264143,61.333225,-1.000000,-1.000000,1508446894.222709,5
1508446894.252506,-0.100067,1.232873,-1.405810,-1.589280,1.320864,0.272756,-0.033120,-0.943445,-0.329870,0.003899,0.398935,0.644903,-3.019045,-30.145409,1.517489,,,,,,,5
1508446894.272530,-0.082784,1.205900,-1.399294,-1.188703,1.062300,0.214112,-0.029508,-0.934161,-0.355630,0.000867,0.385745,0.659402,-3.284445,-30.155853,0.003393,,,,,,,5
1508446894.292528,-0.073791,1.186183,-1.391054,-0.845740,0.674526,0.259240,-0.027661,-0.926944,-0.374179,0.035581,0.381457,0.666050,-3.408291,-30.134069,-0.696088,,,,,,,5
1508446894.312550,-0.081359,1.173257,-1.373853,-0.466854,0.289413,0.463313,-0.031463,-0.922017,-0.385870,0.064056,0.394017,0.670721,-3.487054,-30.117828,-0.959178,,,,,,,5
1508446894.332565,-0.109628,1.168741,-1.343285,0.013234,-0.265660,0.686193,-0.042813,-0.920259,-0.388961,0.140942,0.462037,0.728180,-3.927333,-30.048782,-1.345294,,,,,,,5
1508446894.352549,-0.166787,1.173279,-1.303756,0.515295,-1.563927,0.734075,-0.064269,-0.922025,-0.381759,0.278182,0.504254,0.645125,-4.258641,-30.007814,-1.248287,,,,,,,5
1508446894.372586,-0.249549,1.186602,-1.260025,1.015194,-2.228550,0.619512,-0.092566,-0.927101,-0.363202,0.374991,0.527244,0.563275,-4.612889,-29.967503,-0.912768,,,,,,,5
1508446894.392581,-0.331301,1.209986,-1.213500,1.554104,-1.732455,0.393286,-0.114832,-0.935611,-0.333835,0.308115,0.157214,-0.067731,-5.017865,-29.915993,-0.131902,,,,,,,5
1508446894.412586,-0.412618,1.241074,-1.153600,1.857107,-1.000501,0.441060,-0.129839,-0.946132,-0.296607,-0.192518,-0.593892,-1.116265,-5.348543,-29.817942,1.564177,,,,,,,5
1508446894.432608,-0.484337,1.250027,-1.088654,0.334303,0.241366,0.818061,-0.146809,-0.948993,-0.279032,-0.579540,-1.239499,-1.876089,-5.348543,-29.817942,1.564177,,,,,,,5
1508446894.452634,-0.477712,1.249232,-1.065663,0.060348,1.740648,-0.039121,-0.145304,-0.948742,-0.280669,-0.649236,-0.351200,-0.759675,-5.938833,-29.647039,2.438543,,,,,,,5
1508446894.472619,-0.418223,1.256589,-1.085802,0.334699,2.206041,-0.578459,-0.125522,-0.951042,-0.282426,-0.437176,0.140540,-0.382720,-5.984488,-29.654219,2.230771,,,,,,,5
1508446894.492657,-0.354191,1.264071,-1.110677,0.017240,1.792642,-0.366314,-0.104722,-0.953327,-0.283196,-0.317596,0.217289,-0.426704,-5.984488,-29.654219,2.230771,,,,,,,5
1508446894.512671,-0.313010,1.270027,-1.112348,0.630869,2.153548,-0.052200,-0.091224,-0.955109,-0.281860,-0.080941,0.264481,0.497345,-5.713397,-29.723774,2.004369,,,,,,,5
1508446894.532681,-0.302988,1.298303,-1.093777,1.878886,0.469440,-0.256121,-0.080302,-0.963103,-0.256875,-0.000340,0.242415,0.844552,-5.719648,-29.688366,2.459611,,,,,,,5
1508446894.552693,-0.368312,1.347483,-1.057200,2.703525,-2.155509,-0.414204,-0.079735,-0.975169,-0.206610,0.029214,0.165599,0.962896,-5.719648,-29.688366,2.459611,,,,,,,5
1508446894.572707,-0.466260,1.405954,-0.977760,3.038179,0.018215,-0.612100,-0.073770,-0.986444,-0.146580,0.274178,-0.291601,0.688908,-5.052547,-29.349739,5.764343,,,,,,,5
1508446894.592686,-0.365398,1.434616,-1.056604,-0.139695,1.643910,-1.302567,-0.048510,-0.990742,-0.126797,0.677141,-1.207912,-1.366596,-4.737142,-29.189980,6.757783,,,,,,,5
1508446894.612728,-0.294604,1.439197,-1.106534,0.381989,0.405228,0.292595,-0.038101,-0.991353,-0.125567,0.551895,-0.915324,-0.240324,-4.358890,-29.270100,6.665169,,,,,,,5
1508446894.632742,-0.488756,1.442520,-0.917512,0.721354,-0.479464,1.320076,-0.060064,-0.991784,-0.112947,0.306250,0.194985,0.775240,-4.772722,-29.133265,6.974030,,,,,,,5
1508446894.652734,-0.693887,1.443153,-0.720345,0.705453,-0.518870,0.682133,-0.081410,-0.991865,-0.097861,0.192982,0.637830,0.946738,-5.272620,-28.959480,7.328786,,,,,,,5
1508446894.672763,-0.803881,1.459104,-0.609702,1.439416,0.668654,-0.467223,-0.080257,-0.993769,-0.077344,0.119198,0.761881,0.981259,-5.507610,-28.823984,7.681620,,,,,,,5
1508446894.692777,-1.118981,1.499328,-0.256976,3.026635,2.085246,-0.690488,-0.064242,-0.997447,-0.031176,-0.122235,0.476512,0.621829,-5.354522,-28.473942,8.984814,,,,,,,5
1508446894.712763,-2.121451,1.498459,0.746046,3.467568,-1.866348,0.366390,-0.061591,-0.997385,0.037817,-0.312174,-0.127737,-0.678595,-5.343505,-28.041779,10.260055,,,,,,,5
1508446894.732800,-2.515578,1.443652,1.080129,2.752743,-2.872357,0.870806,-0.074296,-0.991928,0.102757,-0.406844,-0.366119,-0.896259,-5.192735,-27.443499,11.834397,,,,,,,5
1508446894.752812,-2.654307,1.404387,1.189525,1.669294,-0.870093,0.033941,-0.077559,-0.986186,0.146363,-0.138887,-0.211003,0.109328,-4.907545,-26.630089,13.671779,,,,,,,5
1508446894.772797,-2.744905,1.383033,1.270448,1.138229,-0.458528,-0.223540,-0.072120,-0.982424,0.172167,0.072608,0.062518,0.095305,-4.538897,-25.921093,15.088356,,,,,,,5
1508446894.792838,-2.803246,1.363537,1.323417,1.088899,-0.233870,-0.086426,-0.068304,-0.978599,0.194112,0.097539,0.182777,-0.003224,-4.538897,-25.921093,15.088356,,,,,,,5
1508446894.812833,-2.844968,1.341844,1.362326,1.230474,-0.217953,-0.070338,-0.066338,-0.973905,0.217046,0.053551,0.247083,-0.136968,-4.241868,-25.240355,16.281715,,,,,,,5
1508446894.832852,-2.893818,1.316583,1.404729,1.410756,-0.479798,-0.189364,-0.061676,-0.967861,0.243804,-0.022324,0.060482,-0.080657,-4.076380,-24.815563,16.962727,,,,,,,5
1508446894.852870,-2.939007,1.289142,1.439830,1.429782,-0.592024,-0.077494,-0.055923,-0.960597,0.272261,-0.089493,-0.033086,-0.062849,-4.076380,-24.815563,16.962727,,,,,,,5
1508446894.872883,-2.960951,1.262671,1.450218,1.246150,-0.595182,0.206339,-0.054486,-0.952904,0.298338,-0.199588,-0.089989,-0.071790,-0.482088,-26.988693,15.541315,,,,,,,5
1508446894.892867,-2.968860,1.239573,1.446787,1.085269,-0.526966,0.246588,-0.055894,-0.945645,0.320361,-0.130492,-0.009021,-0.096850,-0.360504,-26.398109,16.527683,,,,,,,5
1508446894.912894,-2.981774,1.216989,1.449889,1.161187,-0.501117,0.055580,-0.055137,-0.938060,0.342057,-0.040902,0.030467,-0.112900,-0.360504,-26.398109,16.527683,,,,,,,5
1508446894.932920,-3.007469,1.192168,1.462635,1.321322,-0.873491,-0.079667,-0.049430,-0.929172,0.366327,0.170523,0.098957,-0.173639,-0.073386,-25.600256,17.741924,,,,,,,5
1508446894.952899,-3.044657,1.163703,1.475965,1.518608,-1.440928,-0.093374,-0.038321,-0.918276,0.394083,0.224936,0.083712,-0.255380,0.236408,-25.230713,18.262247,,,,,,,5
1508446894.972941,-3.088250,1.132557,1.488880,1.576368,-1.660107,-0.181437,-0.022625,-0.905500,0.423742,0.209270,0.089857,-0.318289,0.670348,-24.808571,18.821264,,,,,,,5
1508446894.992955,-3.131365,1.101154,1.498197,1.566706,-1.739538,-0.113433,-0.004629,-0.891730,0.452544,-0.035761,-0.090615,-0.432357,1.763845,-23.884918,19.913662,,,,,,,5
1508446895.012949,3.120614,1.072612,1.497491,1.291494,-1.441224,0.091082,0.010023,-0.878452,0.477726,-0.060744,-0.351956,-0.093739,2.302184,-23.420544,20.404228,,,,,,,5
1508446895.032976,3.105749,1.055034,1.492530,0.621443,-0.631531,0.045703,0.017674,-0.869917,0.492881,-0.147573,-0.367266,-0.015754,2.812777,-22.928595,20.893114,,,,,,,5
1508446895.052991,3.100264,1.047650,1.494084,0.255134,-0.036954,-0.103806,0.020642,-0.866252,0.499181,-0.377561,-0.380590,-0.069570,3.048406,-22.653322,21.158653,,,,,,,5
1508446895.072974,3.093021,1.045184,1.500196,0.042410,-0.212401,-0.182356,0.024361,-0.865017,0.501151,-0.536766,-0.412006,-0.668906,3.133902,-22.572876,21.232010,,,,,,,5
1508446895.092997,3.079816,1.045939,1.506105,-0.120517,-0.493510,-0.090216,0.030936,-0.865395,0.500134,-0.492407,-0.483344,-0.807950,3.133902,-22.572876,21.232010,,,,,,,5
1508446895.113003,3.073211,1.055765,1.505027,-0.805676,-0.243757,0.139625,0.033656,-0.870277,0.491411,-0.514018,-0.786995,-0.946810,3.537035,-22.698153,21.034203,,,,,,,5
1508446895.133010,3.075032,1.088098,1.503948,-2.135674,0.241144,0.074712,0.030873,-0.885746,0.463143,-0.274647,-0.823940,-1.009804,3.499688,-23.239130,20.441368,,,,,,,5
1508446895.153037,3.072089,1.146076,1.520171,-3.302223,0.723811,-0.299760,0.028617,-0.911154,0.411071,-0.037726,-0.723093,-0.905746,3.499688,-23.239130,20.441368,,,,,,,5
1508446895.173056,3.058251,1.211747,1.550225,-3.091471,0.603912,-0.226773,0.029251,-0.936231,0.350164,0.324631,-0.278338,-0.131567,3.289917,-24.899326,18.421577,,,,,,,5
1508446895.193044,3.059426,1.261181,1.552433,-2.112683,-0.140264,0.386592,0.025007,-0.952451,0.303664,0.267107,-0.391452,0.366044,3.123403,-26.412699,16.210125,,,,,,,5
1508446895.213082,3.068619,1.297893,1.525729,-1.738685,-1.261706,0.551737,0.019651,-0.962992,0.268811,0.222308,-0.546956,0.542026,3.123403,-26.412699,16.210125,,,,,,,5
1508446895.233096,3.081533,1.342123,1.479006,-2.556847,-1.574535,0.890789,0.013606,-0.973968,0.226277,0.195164,-0.905900,0.613384,3.085341,-27.320612,14.636234,,,,,,,5
1508446895.253080,-3.116944,1.411209,1.375453,-3.913183,-0.389737,1.074273,-0.003916,-0.987293,0.158863,0.020594,-0.542507,0.281201,2.976279,-28.277891,12.714443,,,,,,,5
1508446895.273118,-2.874790,1.490929,1.136367,-4.031149,0.558658,0.676866,-0.021034,-0.996812,0.076960,-0.067283,-0.355635,0.186773,2.593038,-29.013834,11.028507,,,,,,,5
1508446895.293131,-1.729165,1.540431,0.002418,-3.355415,0.543135,0.289542,-0.029981,-0.999539,0.004788,-0.107257,-0.106738,0.127963,1.901085,-30.147196,7.595189,,,,,,,5
1508446895.313134,-0.545207,1.503857,-1.176498,-2.966567,0.166811,0.274366,-0.034688,-0.997760,-0.057192,0.031087,-0.025402,0.385790,1.741640,-30.487667,6.133778,,,,,,,5
1508446895.333154,-0.366247,1.448695,-1.354400,-2.758374,0.089160,0.580543,-0.043617,-0.992555,-0.113720,0.112938,0.034166,0.488934,2.359820,-30.828827,4.709414,,,,,,,5
1508446895.353167,-0.338962,1.394961,-1.378031,-2.455473,0.249295,0.850415,-0.058166,-0.984581,-0.164977,0.190307,0.269920,0.531966,1.774830,-31.148333,2.189799,,,,,,,5
1508446895.373163,-0.341349,1.347090,-1.368822,-2.095713,0.401115,0.877989,-0.074265,-0.975082,-0.209046,0.082321,0.354537,0.588852,1.218290,-31.242790,0.753450,,,,,,,5
1508446895.393189,-0.336620,1.305239,-1.360866,-1.864568,0.789229,0.713026,-0.086686,-0.964946,-0.247718,0.050431,0.343593,0.642844,0.818289,-31.264326,-0.190201,,,,,,,5
1508446895.413202,-0.310518,1.267924,-1.364574,-1.735519,1.329979,0.435537,-0.091135,-0.954484,-0.283999,-0.033774,0.366929,0.681063,0.336607,-31.232218,-1.612165,,,,,,,5
1508446895.433214,-0.265452,1.236039,-1.378274,-1.473290,1.735704,0.147333,-0.086191,-0.944490,-0.317032,-0.081793,0.428621,0.689469,0.213106,-31.182985,-2.395782,,,,,,,5
1508446895.453208,-0.215170,1.211969,-1.392286,-1.071743,1.899714,0.021937,-0.074981,-0.936309,-0.343078,-0.099915,0.463073,0.710831,0.213531,-31.123110,-3.077388,,,,,,,5
1508446895.473233,-0.169624,1.195909,-1.401412,-0.656358,1.784611,-0.021569,-0.061813,-0.930549,-0.360912,0.004883,0.561851,0.808880,0.396187,-31.014221,-4.015591,,,,,,,5
1508446895.493249,-0.135374,1.189868,-1.405206,-0.082256,1.332862,-0.008654,-0.050176,-0.928320,-0.368381,0.078893,0.572287,0.843326,0.549440,-30.976398,-4.280747,,,,,,,5
1508446895.513236,-0.124125,1.195663,-1.399907,0.527007,0.456537,0.111769,-0.045362,-0.930459,-0.363578,0.131330,0.590752,0.809897,0.549440,-30.976398,-4.280747,,,,,,,5
1508446895.533261,-0.145222,1.214561,-1.381658,1.281122,-0.603557,0.257739,-0.050468,-0.937216,-0.345078,0.330558,0.596716,0.524826,0.592208,-31.014883,-3.986245,,,,,,,5
1508446895.553284,-0.203508,1.249673,-1.342567,2.179924,-1.251718,0.354106,-0.063791,-0.948882,-0.309119,0.428339,0.428069,0.216452,0.272827,-31.158785,-2.686907,,,,,,,5
1508446895.573296,-0.296512,1.299024,-1.274757,2.862463,-1.425138,0.383034,-0.078434,-0.963297,-0.256725,0.440449,0.211221,-0.068226,0.272827,-31.158785,-2.686907,,,,,,,5
1508446895.593308,-0.439991,1.326038,-1.159279,0.501481,-1.557788,1.280190,-0.103212,-0.970196,-0.219242,-0.175291,-1.896290,-2.448468,-0.142956,-31.274179,-0.262774,,,,,,,5
1508446895.613306,-0.493884,1.305259,-1.100970,-0.712806,1.282701,0.739942,-0.124404,-0.964952,-0.231068,-0.595781,-1.784545,-1.903195,-0.620353,-31.266569,0.425094,,,,,,,5
1508446895.633331,-0.438065,1.301165,-1.122197,0.039807,1.985177,-0.585309,-0.112994,-0.963869,-0.241223,-0.663786,-0.350203,-0.859927,-1.377678,-31.245205,-0.055828,,,,,,,5
1508446895.653345,-0.348172,1.315684,-1.164912,0.501987,2.485693,-0.773835,-0.086098,-0.967635,-0.237212,-0.350746,0.424941,-0.399216,0.379766,-32.226383,-2.029744,,,,,,,5
1508446895.673334,-0.270249,1.324441,-1.193755,0.314666,2.635289,-0.250349,-0.065107,-0.969808,-0.235020,0.020810,0.355397,0.376667,1.081423,-32.233162,-1.630198,,,,,,,5
1508446895.693366,-0.232130,1.337133,-1.191660,0.847620,1.153376,-0.158696,-0.053267,-0.972825,-0.225332,0.147444,0.203202,0.755301,1.302408,-32.239063,-1.323023,,,,,,,5
1508446895.713380,-0.268086,1.366391,-1.185215,1.911652,-3.045220,-0.375620,-0.053768,-0.979182,-0.195735,0.253765,-0.053670,1.281321,1.365289,-32.246334,-1.055368,,,,,,,5
1508446895.733392,-0.373413,1.417048,-1.142171,2.809070,-2.361909,-0.477364,-0.055866,-0.988204,-0.142590,0.384281,-0.373261,1.037884,1.763938,-32.231209,0.917293,,,,,,,5
1508446895.753402,-0.414154,1.467760,-1.097135,1.483307,1.775933,-0.964313,-0.041390,-0.994696,-0.094159,0.566018,-0.796090,-0.040882,1.763938,-32.231209,0.917293,,,,,,,5
1508446895.773415,-0.249383,1.474844,-1.224275,0.145047,1.352948,-0.307020,-0.023645,-0.995400,-0.092842,0.377237,-0.581214,0.114540,2.612515,-32.039948,3.069246,,,,,,,5
1508446895.793427,-0.403480,1.479828,-1.067965,0.497027,-0.402730,1.061689,-0.035667,-0.995865,-0.083548,0.253700,0.239502,0.752982,2.407973,-32.028938,3.339543,,,,,,,5
1508446895.813418,-0.668782,1.472745,-0.805399,0.227249,0.046060,1.159888,-0.060697,-0.995197,-0.076805,0.186125,0.510288,0.953499,2.055144,-32.038471,3.480870,,,,,,,5
1508446895.833447,-0.786679,1.472436,-0.677291,0.699559,0.819279,-0.028143,-0.069528,-0.995167,-0.069350,0.003625,0.978626,1.072844,1.130952,-32.051220,3.774119,,,,,,,5
1508446895.853449,-0.958029,1.506078,-0.471372,2.385123,2.021722,-1.020568,-0.052907,-0.997906,-0.037196,-0.092220,0.683392,0.494609,1.329445,-31.930113,4.637271,,,,,,,5
1508446895.873472,-2.291193,1.521414,0.879497,4.104975,-0.628687,-0.425961,-0.037098,-0.998781,0.032563,-0.121914,0.338777,0.015944,1.329445,-31.930113,4.637271,,,,,,,5
1508446895.893486,-2.828654,1.448423,1.352162,3.789699,-4.165511,0.648413,-0.037579,-0.992522,0.116139,-0.106662,-0.512773,-0.597692,2.140747,-30.895308,9.148817,,,,,,,5
1508446895.913477,-2.904628,1.390467,1.370103,2.149033,-1.895859,0.546083,-0.042104,-0.983785,0.174342,-0.060145,-0.380870,0.123846,2.382308,-30.408491,10.604342,,,,,,,5
1508446895.933508,-2.914752,1.365597,1.367244,0.802961,-0.112812,0.168984,-0.045826,-0.979020,0.198543,-0.087383,-0.267928,0.264379,2.453263,-30.070795,11.512276,,,,,,,5
1508446895.953522,-2.933476,1.353170,1.386827,0.686429,-0.058746,-0.184368,-0.044611,-0.976413,0.211254,-0.113470,0.191287,0.016499,2.077308,-30.233150,10.632633,,,,,,,5
1508446895.973526,-2.979408,1.334006,1.425736,1.265009,-0.612817,-0.267320,-0.037879,-0.972096,0.231505,-0.081780,0.304570,-0.100051,2.225313,-30.025045,11.178377,,,,,,,5
1508446895.993543,-3.030374,1.304028,1.462250,1.620686,-0.826423,-0.235797,-0.029258,-0.964628,0.261987,0.005455,0.165281,-0.049981,2.530641,-29.705210,11.941854,,,,,,,5
1508446896.013553,-3.070182,1.275199,1.488039,1.335196,-0.628600,-0.213515,-0.020785,-0.956628,0.290569,0.005786,-0.072836,-0.003948,2.952533,-29.204264,13.030922,,,,,,,5
1508446896.033568,-3.088750,1.253107,1.501070,0.989690,-0.141300,-0.050963,-0.016499,-0.949960,0.311936,-0.202801,-0.124961,-0.077363,3.164960,-28.872852,13.702293,,,,,,,5
1508446896.053580,-3.086921,1.236309,1.499952,0.775282,0.123858,0.098661,-0.017939,-0.944579,0.327795,-0.250570,-0.076127,-0.133062,3.164960,-28.872852,13.702293,,,,,,,5
1508446896.073571,-3.084866,1.220654,1.501359,0.809594,0.181729,-0.055400,-0.019449,-0.939324,0.342480,-0.134589,0.059777,-0.241207,3.079974,-28.405704,14.664283,,,,,,,5
1508446896.093603,-3.090058,1.204209,1.511673,0.821448,0.230259,-0.150027,-0.018464,-0.933556,0.357955,0.041642,0.014931,-0.183135,3.080582,-28.152002,15.145502,,,,,,,5
1508446896.113590,-3.095276,1.188327,1.517955,0.802254,-0.170835,-0.019525,-0.017280,-0.927746,0.372812,0.157462,-0.089619,-0.165949,3.092443,-27.960701,15.493465,,,,,,,5
1508446896.133628,-3.108788,1.171542,1.518828,0.852602,-0.879336,0.009102,-0.012750,-0.921351,0.388522,0.196267,-0.061467,-0.295291,3.143930,-27.770674,15.821402,,,,,,,5
1508446896.153638,-3.132623,1.154985,1.522770,0.820893,-1.017751,-0.084961,-0.003623,-0.914789,0.403916,0.096671,0.020746,-0.492142,3.578055,-27.362881,16.428076,,,,,,,5
1508446896.173649,3.128412,1.135901,1.522620,1.065644,-1.229852,0.056380,0.005553,-0.906914,0.421279,0.029069,-0.075813,-0.609664,3.858798,-27.145529,16.722483,,,,,,,5
1508446896.193663,3.098748,1.113367,1.521569,1.095912,-1.680756,-0.074675,0.018916,-0.897191,0.441238,0.040273,-0.134319,-0.575973,4.046010,-26.974310,16.953697,,,,,,,5
1508446896.213648,3.064351,1.095800,1.522304,0.697485,-1.596463,-0.017201,0.035290,-0.889294,0.455972,-0.134228,-0.386798,-0.308923,4.905553,-26.408688,17.604776,,,,,,,5
1508446896.233685,3.047709,1.090359,1.517123,-0.001750,-0.626693,0.140666,0.043326,-0.886793,0.460131,-0.336585,-0.400209,-0.234973,5.330298,-26.224073,17.756617,,,,,,,5
1508446896.253699,3.048949,1.102040,1.515133,-0.906002,0.134220,0.084799,0.041794,-0.892131,0.449840,-0.725251,-0.439076,-0.853831,5.513292,-26.314445,17.566021,,,,,,,5
1508446896.273705,3.045349,1.127653,1.517481,-1.422196,-0.149284,0.046252,0.041204,-0.903408,0.426797,-0.651632,-0.489170,-1.174554,5.469374,-26.602753,17.140329,,,,,,,5
1508446896.293720,3.039526,1.158683,1.527489,-1.718121,0.368624,-0.144259,0.040812,-0.916277,0.398462,-0.511972,-0.533461,-0.934091,5.481030,-26.963659,16.562933,,,,,,,5
1508446896.313734,3.017112,1.200754,1.558090,-2.386144,0.117241,-0.437444,0.044903,-0.932312,0.358856,0.209843,-0.537063,-0.520569,5.452974,-27.490704,15.682402,,,,,,,5
1508446896.333735,2.969488,1.247446,1.599709,-2.313673,-0.762725,-0.224562,0.054416,-0.948176,0.313050,0.327603,-0.349752,-0.008485,5.702478,-28.302376,14.066586,,,,,,,5
1508446896.353757,2.935840,1.287516,1.613297,-1.816321,-1.130411,0.423435,0.057104,-0.960144,0.273611,0.189523,-0.453965,0.457178,5.996673,-28.888206,12.685535,,,,,,,5
1508446896.373747,2.936130,1.323025,1.587186,-1.662604,-1.207684,0.829249,0.050035,-0.969461,0.240086,0.035140,-0.777838,0.689708,5.965504,-29.491800,11.227551,,,,,,,5
1508446896.393780,2.978448,1.367138,1.528976,-2.408912,-0.403000,1.162285,0.032850,-0.979333,0.199568,-0.317305,-0.833441,0.347277,5.589260,-29.998371,10.013457,,,,,,,5
1508446896.413779,3.057033,1.435505,1.450609,-3.774989,0.371402,0.945034,0.011392,-0.990862,0.134397,-0.390023,-0.566679,0.157152,5.265695,-30.310978,9.215663,,,,,,,5
1508446896.433803,-3.084219,1.508571,1.326678,-3.332703,1.080325,0.504158,-0.003566,-0.998065,0.062083,-0.338750,-0.174863,0.077963,4.614082,-30.991491,7.046221,,,,,,,5
1508446896.453816,-2.043872,1.559920,0.304550,-2.673983,0.867373,0.161263,-0.009681,-0.999941,0.004955,0.011955,-0.176237,0.422428,3.758699,-31.114038,5.838235,,,,,,,5
1508446896.473807,-0.240396,1.519171,-1.485691,-2.822959,0.549955,0.201318,-0.012286,-0.998668,-0.050118,0.159594,-0.170842,0.525307,3.668835,-31.264717,5.035192,,,,,,,5
1508446896.493841,-0.186970,1.462035,-1.525001,-2.777016,0.892410,0.621466,-0.020177,-0.994091,-0.106655,0.280645,0.169705,0.470150,3.337645,-31.609005,2.455015,,,,,,,5
1508446896.513851,-0.210928,1.407944,-1.478666,-2.448709,1.168506,0.942743,-0.033945,-0.986769,-0.158540,0.200037,0.381392,0.467194,2.968478,-31.717659,1.214280,,,,,,,5
1508446896.533863,-0.233869,1.360875,-1.430044,-2.051607,1.305296,0.931218,-0.048291,-0.978047,-0.202710,0.089490,0.469182,0.521817,2.357544,-31.791161,-0.245417,,,,,,,5
1508446896.553876,-0.233681,1.320795,-1.399795,-1.767081,1.605008,0.709132,-0.057289,-0.968912,-0.240681,0.026634,0.486719,0.579731,1.929968,-31.798885,-1.184148,,,,,,,5
1508446896.573877,-0.209260,1.287083,-1.387427,-1.507992,1.924664,0.414449,-0.058150,-0.960023,-0.273816,-0.028260,0.508866,0.616574,1.445300,-31.746490,-2.523401,,,,,,,5
1508446896.593897,-0.165954,1.260281,-1.389719,-1.205165,2.126330,0.106196,-0.050475,-0.952176,-0.301352,-0.080843,0.530606,0.643164,1.324250,-31.669563,-3.403120,,,,,,,5
1508446896.613889,-0.110981,1.240207,-1.400855,-0.912068,2.252945,-0.096785,-0.035951,-0.945851,-0.322603,-0.100280,0.529958,0.670351,1.354840,-31.626844,-3.768722,,,,,,,5
1508446896.633924,-0.058201,1.225813,-1.411472,-0.606358,2.001008,-0.097646,-0.019671,-0.941081,-0.337608,0.036731,0.456828,0.666633,1.761353,-31.487892,-4.659008,,,,,,,5
1508446896.653933,-0.027913,1.219550,-1.411325,-0.118651,1.156935,0.113367,-0.009603,-0.938945,-0.343934,0.081304,0.433986,0.654390,1.921214,-31.450827,-4.842586,,,,,,,5
1508446896.673946,-0.037717,1.224194,-1.391852,0.460581,-0.050055,0.452630,-0.012810,-0.940532,-0.339463,0.193565,0.393520,0.587189,1.868533,-31.463726,-4.778988,,,,,,,5
1508446896.693933,-0.096527,1.239985,-1.351547,1.057201,-1.627078,0.696994,-0.031304,-0.945779,-0.323298,0.408578,0.354043,0.290553,1.460424,-31.544687,-4.369906,,,,,,,5
1508446896.713970,-0.198374,1.266241,-1.290142,1.642016,-2.359140,0.752376,-0.059097,-0.953980,-0.293988,0.481735,0.327058,0.140699,0.996511,-31.632950,-3.828789,,,,,,,5
1508446896.733975,-0.324469,1.297916,-1.209166,1.891244,-2.394448,0.718205,-0.085920,-0.962999,-0.255444,0.250547,-0.269072,-0.576496,0.233049,-31.780060,-2.503913,,,,,,,5
1508446896.753994,-0.476569,1.316089,-1.096081,0.875399,-1.789888,1.197930,-0.115584,-0.967737,-0.223887,-0.253389,-1.041205,-1.446767,-0.231036,-31.835819,-1.650273,,,,,,,5
1508446896.773977,-0.559648,1.302433,-1.024291,-0.515693,0.128564,0.953654,-0.140767,-0.964206,-0.224702,-0.502300,-0.931363,-1.250502,-0.831187,-31.844912,-1.227564,,,,,,,5
1508446896.793994,-0.529100,1.290926,-1.027414,-0.383755,1.951931,-0.124593,-0.139429,-0.961091,-0.238460,-0.506399,0.050386,-0.478307,-1.475180,-31.811594,-1.463706,,,,,,,5
1508446896.814029,-0.462336,1.293857,-1.045111,0.188920,2.672549,-0.239637,-0.121953,-0.961897,-0.244708,-0.388194,0.222548,-0.362958,-1.361026,-31.799025,-1.807185,,,,,,,5
1508446896.834039,-0.416968,1.292589,-1.041777,-0.193926,2.319490,0.205193,-0.111224,-0.961549,-0.251103,-0.303556,0.188844,-0.331249,-1.184407,-31.807331,-1.785244,,,,,,,5
1508446896.854052,-0.373145,1.296759,-1.038335,0.677954,2.292786,-0.311485,-0.098654,-0.962686,-0.251998,-0.111292,0.038080,0.582809,-1.140751,-31.802891,-1.889705,,,,,,,5
1508446896.874065,-0.341351,1.336500,-1.038729,2.540599,1.036570,-0.791101,-0.077717,-0.972678,-0.218764,-0.224239,-0.368097,0.864592,-0.716755,-31.854452,-1.037410,,,,,,,5
1508446896.894075,-0.388295,1.390690,-0.989416,2.369951,-0.475072,-0.194201,-0.067822,-0.983825,-0.165798,-0.278858,-0.633149,0.739605,-0.467177,-31.875427,-0.187408,,,,,,,5
1508446896.914088,-0.401916,1.413196,-0.973698,0.336329,1.129493,-0.678262,-0.061396,-0.987607,-0.144442,0.291101,-0.561191,0.044329,-0.175206,-31.831802,1.732563,,,,,,,5
1508446896.934076,-0.225003,1.411060,-1.102914,-0.701115,2.305629,-0.796670,-0.035487,-0.987269,-0.155048,0.380870,-0.047048,0.185444,0.329627,-31.835655,1.636628,,,,,,,5
1508446896.954110,-0.209575,1.394731,-1.112595,-0.774481,-0.953689,0.685578,-0.036440,-0.984540,-0.171325,0.405108,0.117383,0.353225,0.505662,-31.844318,1.407044,,,,,,,5
1508446896.974124,-0.382328,1.385350,-0.980985,0.474099,-2.650582,1.381362,-0.068791,-0.982854,-0.171072,0.553105,0.720891,0.716772,-0.188269,-31.867016,0.868351,,,,,,,5
1508446896.994134,-0.608264,1.408071,-0.803795,2.480749,-2.091571,0.231389,-0.092578,-0.986789,-0.132950,0.597812,1.024631,0.713791,-0.728224,-31.842510,1.349247,,,,,,,5
1508446897.014146,-0.858436,1.469172,-0.567609,3.541999,-0.135620,-1.372525,-0.076779,-0.994841,-0.066310,0.504086,0.820112,0.526729,-0.772933,-31.768066,2.547268,,,,,,,5
1508446897.034159,-1.637489,1.521865,0.218334,3.281546,0.207562,-1.094390,-0.048803,-0.998803,0.003260,0.241887,-0.089499,0.213232,0.455781,-31.331961,5.864861,,,,,,,5
1508446897.054171,-2.582128,1.491335,1.158443,3.138036,-0.633336,0.231525,-0.042128,-0.996845,0.067275,-0.197832,-0.705273,-0.111602,0.876201,-30.879511,7.873000,,,,,,,5
1508446897.074179,-2.680817,1.435606,1.234723,2.236807,-1.237931,1.272402,-0.059928,-0.990876,0.120723,-0.294335,-0.556152,0.000631,0.716057,-30.505878,9.229012,,,,,,,5
1508446897.094174,-2.684930,1.398957,1.224069,1.275209,-0.297943,0.469811,-0.075401,-0.985272,0.153473,-0.363335,0.117764,0.289368,0.136709,-30.023607,10.717296,,,,,,,5
1508446897.114206,-2.754654,1.382371,1.298431,0.994619,0.287015,-0.593612,-0.070683,-0.982300,0.173464,-0.380535,0.228486,0.150663,0.082401,-29.836411,11.228445,,,,,,,5
1508446897.134207,-2.848826,1.362639,1.394608,1.461978,-0.272391,-0.396394,-0.059642,-0.978413,0.197864,-0.406712,0.310765,0.001507,0.289002,-29.661346,11.679775,,,,,,,5
1508446897.154233,-2.913590,1.329402,1.449223,1.903468,-0.566897,-0.094844,-0.054034,-0.971006,0.232870,-0.106686,0.205167,-0.109594,0.604629,-29.323236,12.493134,,,,,,,5
1508446897.174219,-2.965892,1.291974,1.494123,1.901583,-0.420931,-0.276821,-0.048109,-0.961380,0.270986,-0.007601,-0.146942,-0.019003,0.940021,-28.565193,14.122402,,,,,,,5
1508446897.194252,-3.012780,1.259584,1.533599,1.544922,-0.452637,-0.284048,-0.039335,-0.951963,0.303676,0.002561,-0.262804,-0.001613,1.087625,-28.293901,14.648149,,,,,,,5
1508446897.214265,-3.032982,1.234605,1.548961,1.091655,-0.165574,0.028664,-0.035760,-0.944018,0.327950,0.044182,-0.149976,-0.068307,1.457815,-27.605352,15.878147,,,,,,,5
1508446897.234278,-3.032797,1.216425,1.547046,0.853963,-0.060936,0.143903,-0.037678,-0.937865,0.344949,0.058567,0.073927,-0.181879,1.436363,-27.298557,16.401884,,,,,,,5
1508446897.254287,-3.038996,1.195984,1.549809,1.160998,-0.313396,-0.006012,-0.037494,-0.930576,0.364173,0.126621,0.161884,-0.216895,1.411381,-27.075476,16.769699,,,,,,,5
1508446897.274301,-3.063655,1.168333,1.560748,1.515008,-1.006558,-0.101570,-0.030496,-0.920099,0.390497,0.158762,0.150201,-0.236185,1.450657,-26.887880,17.065567,,,,,,,5
1508446897.294307,-3.098714,1.136433,1.569348,1.615267,-1.498323,-0.059589,-0.018039,-0.907138,0.420446,0.163395,-0.057797,-0.260916,2.136602,-25.962872,18.375538,,,,,,,5
1508446897.314323,-3.134031,1.106370,1.573138,1.395939,-1.611783,-0.032738,-0.003387,-0.894079,0.447897,0.063491,-0.152507,-0.333060,2.434653,-25.663643,18.754892,,,,,,,5
1508446897.334337,3.119258,1.083206,1.573064,1.024166,-1.412776,0.011193,0.010463,-0.883464,0.468382,-0.108791,-0.283040,-0.391065,3.358676,-24.889982,19.634260,,,,,,,5
1508446897.354334,3.093671,1.066567,1.571119,0.718553,-1.361612,0.014033,0.023144,-0.875547,0.482578,-0.072613,-0.273684,-0.357410,3.896435,-24.530817,19.983816,,,,,,,5
1508446897.374271,3.067525,1.054857,1.568846,0.537558,-1.433708,0.027390,0.036508,-0.869830,0.491999,-0.162988,-0.279096,-0.331355,4.306135,-24.334066,20.139675,,,,,,,5
1508446897.394288,3.041559,1.045842,1.566337,0.371446,-1.352939,0.011174,0.050051,-0.865347,0.498668,-0.389208,-0.334009,-0.344523,5.010586,-24.079784,20.281866,,,,,,,5
1508446897.414296,3.018497,1.044526,1.566467,-0.156826,-0.978777,-0.005681,0.061676,-0.864687,0.498511,-0.650696,-0.605879,-0.620017,5.516570,-23.999195,20.246040,,,,,,,5
1508446897.434280,3.006410,1.056253,1.566690,-0.845210,-0.345844,0.131792,0.066326,-0.870517,0.487648,-0.731609,-0.696102,-0.720283,5.698410,-24.047880,20.137619,,,,,,,5
1508446897.454317,3.007652,1.084089,1.564849,-1.742202,0.103436,0.274856,0.062459,-0.883878,0.463529,-0.811788,-0.830692,-0.956586,5.817323,-24.363548,19.719845,,,,,,,5
1508446897.474333,3.009094,1.133771,1.571733,-2.936742,0.658900,0.055661,0.055916,-0.906015,0.419536,-0.536812,-0.729529,-0.889004,5.611751,-25.244953,18.641266,,,,,,,5
1508446897.494318,2.999478,1.202559,1.606250,-3.664724,1.308172,-0.304417,0.050985,-0.932963,0.356343,0.152094,-0.395162,-0.727086,5.413904,-26.045898,17.566925,,,,,,,5
1508446897.514356,2.984839,1.266041,1.638763,-2.839856,0.188719,0.193457,0.046843,-0.953920,0.296381,0.424898,-0.182676,0.234534,5.144814,-27.214588,15.785854,,,,,,,5
1508446897.534367,2.979954,1.310468,1.623815,-1.779276,-1.631042,0.660805,0.041424,-0.966305,0.254043,0.497241,-0.535587,0.552674,4.931565,-28.442064,13.528661,,,,,,,5
1508446897.554377,2.954245,1.343316,1.593212,-1.602747,-3.380736,0.677975,0.042004,-0.974238,0.221577,0.532428,-0.750509,0.586513,4.931565,-28.442064,13.528661,,,,,,,5
1508446897.574392,2.951889,1.388911,1.528827,-2.478497,-2.712734,1.397407,0.034109,-0.983504,0.177639,0.434656,-0.886979,0.531040,5.370857,-29.162971,11.703468,,,,,,,5
1508446897.594383,3.104812,1.455908,1.352767,-3.519456,-0.126584,1.667604,0.004215,-0.993408,0.114559,0.009151,-0.321076,0.299611,5.058763,-30.004808,9.508760,,,,,,,5
1508446897.614413,-2.680810,1.524539,0.868893,-3.604858,1.047663,0.850063,-0.020561,-0.998930,0.041418,-0.053917,-0.203569,0.249750,4.336500,-30.577171,7.907432,,,,,,,5
1508446897.634429,-1.053788,1.532340,-0.739836,-3.059847,0.835413,0.386988,-0.033422,-0.999261,-0.019004,-0.136622,0.031518,0.281150,3.417206,-31.337141,4.754208,,,,,,,5
1508446897.654440,-0.526731,1.483668,-1.255376,-2.668375,0.495248,0.687026,-0.043745,-0.996207,-0.075224,-0.099657,0.204932,0.418501,2.972759,-31.583357,3.154417,,,,,,,5
1508446897.674449,-0.451105,1.431769,-1.324153,-2.328027,0.328131,0.947377,-0.060415,-0.990351,-0.124717,0.056372,0.302165,0.508644,2.587952,-31.714996,1.938446,,,,,,,5
1508446897.694458,-0.439406,1.385561,-1.328477,-1.987371,0.414040,0.958772,-0.078350,-0.982893,-0.166682,0.154567,0.324293,0.577402,2.287283,-31.774937,1.190751,,,,,,,5
1508446897.714461,-0.432208,1.343876,-1.323189,-1.801115,0.772800,0.898825,-0.094238,-0.974364,-0.204290,0.155014,0.349165,0.664495,1.371248,-31.841505,-0.730928,,,,,,,5
1508446897.734484,-0.410629,1.307289,-1.323413,-1.582599,1.232790,0.628402,-0.103975,-0.965482,-0.238815,0.145876,0.363966,0.703308,0.958194,-31.825966,-1.576688,,,,,,,5
1508446897.754498,-0.369475,1.277871,-1.336329,-1.316988,1.541562,0.260297,-0.104277,-0.957403,-0.269268,0.077147,0.495627,0.652660,0.498405,-31.730982,-3.031918,,,,,,,5
1508446897.774504,-0.318028,1.257248,-1.355187,-0.893928,1.743332,-0.000115,-0.096446,-0.951245,-0.292969,0.046825,0.583890,0.649002,0.491473,-31.671419,-3.602191,,,,,,,5
1508446897.794519,-0.265279,1.246529,-1.371331,-0.400836,1.934932,-0.120475,-0.083534,-0.947884,-0.307469,0.012626,0.669320,0.699864,0.640878,-31.607018,-4.108762,,,,,,,5
1508446897.814533,-0.216173,1.246107,-1.381592,0.164634,1.955680,-0.177546,-0.068426,-0.947750,-0.311590,0.026038,0.697826,0.780736,0.950967,-31.576536,-4.279506,,,,,,,5
1508446897.834543,-0.172892,1.258647,-1.389557,0.837871,1.641616,-0.269118,-0.052832,-0.951676,-0.302526,0.123511,0.540070,0.840368,1.244231,-31.606573,-3.971462,,,,,,,5
1508446897.854558,-0.145100,1.281383,-1.390276,1.244551,1.150140,-0.097903,-0.041265,-0.958411,-0.282391,0.172094,0.456061,0.724347,1.388556,-31.637718,-3.663722,,,,,,,5
1508446897.874544,-0.161263,1.309944,-1.359819,1.677394,0.369835,0.416157,-0.041410,-0.966171,-0.254558,0.368193,0.045715,-0.001363,1.548065,-31.712616,-2.865255,,,,,,,5
1508446897.894579,-0.285145,1.345142,-1.239197,1.951923,-1.139078,1.556558,-0.062938,-0.974648,-0.214709,0.135967,-0.957664,-1.318921,1.035996,-31.842051,-1.143124,,,,,,,5
1508446897.914577,-0.533487,1.339573,-1.019842,-0.001289,-1.394996,2.504900,-0.116541,-0.973387,-0.197323,0.033808,-1.546297,-1.735966,1.035996,-31.842051,-1.143124,,,,,,,5
1508446897.934605,-0.629435,1.322912,-0.924917,0.162010,0.390238,0.552728,-0.144437,-0.969434,-0.198334,-0.348544,-0.296542,-0.991654,-1.563359,-31.838032,-0.437931,,,,,,,5
1508446897.954615,-0.604966,1.340113,-0.926547,0.896629,1.583879,-0.973538,-0.130037,-0.973510,-0.188063,-0.279341,0.390167,-0.640199,-1.650545,-31.833935,-0.415269,,,,,,,5
1508446897.974625,-0.502109,1.364236,-0.989586,0.369653,2.205914,-1.193560,-0.098707,-0.978742,-0.179779,-0.103610,0.544325,-0.409179,-0.938640,-31.864710,0.235356,,,,,,,5
1508446897.994640,-0.396650,1.364713,-1.055553,-0.406040,2.105564,-0.237510,-0.079054,-0.978840,-0.188741,0.045531,0.210133,-0.110057,-0.551598,-31.872406,0.376368,,,,,,,5
1508446898.014639,-0.371952,1.372221,-1.034356,1.016995,2.017789,0.091464,-0.071696,-0.980349,-0.183783,0.179255,0.174410,0.374793,-0.178521,-31.878296,0.195932,,,,,,,5
1508446898.034664,-0.431834,1.411873,-0.970337,2.633816,-1.245431,-0.499238,-0.066236,-0.987398,-0.143727,0.246045,-0.033491,0.462636,-0.203283,-31.863880,0.973643,,,,,,,5
1508446898.054675,-0.622716,1.470453,-0.831689,2.886119,-2.824656,-0.632508,-0.058427,-0.994970,-0.081372,0.367142,-0.850230,1.099698,0.062603,-31.802055,2.218428,,,,,,,5
1508446898.074674,-0.830994,1.493269,-0.640362,0.215728,0.778737,0.166963,-0.057205,-0.996996,-0.052212,0.390762,-0.945676,0.388317,-1.771178,-30.661583,8.526177,,,,,,,5
1508446898.094696,-0.715483,1.472157,-0.710543,-1.207329,2.349162,0.644057,-0.064601,-0.995139,-0.074330,0.261775,-0.515939,0.070256,-1.940619,-30.623589,8.625278,,,,,,,5
1508446898.114710,-0.684803,1.452704,-0.713349,-0.413094,0.652958,0.557762,-0.074522,-0.993035,-0.091255,0.235456,0.314996,0.334144,-2.992579,-30.820877,7.555370,,,,,,,5
1508446898.134703,-0.759825,1.448650,-0.649709,0.356993,-1.194614,0.319960,-0.083925,-0.992549,-0.088331,0.107195,0.880565,0.756941,-3.268534,-30.804770,7.506558,,,,,,,5
1508446898.154732,-0.887311,1.458832,-0.543520,1.143335,-0.633673,-0.159713,-0.086633,-0.993739,-0.070558,0.052911,0.981577,0.863298,-3.223368,-30.735004,7.806084,,,,,,,5
1508446898.174747,-1.203896,1.487592,-0.218250,2.694714,0.611353,-0.539921,-0.077577,-0.996540,-0.029813,-0.007826,0.748143,0.707120,-2.979915,-30.435358,8.987470,,,,,,,5
1508446898.194757,-2.129044,1.491101,0.705091,4.034646,-0.942029,-0.400131,-0.067525,-0.996826,0.042170,0.053548,-0.116776,0.118108,-2.690511,-29.816059,10.942091,,,,,,,5
1508446898.214748,-2.687894,1.427233,1.217536,4.039964,-3.281058,0.272127,-0.062707,-0.989712,0.128596,0.047128,-0.442432,-0.195781,-2.446343,-29.347797,12.193762,,,,,,,5
,,,,,,,,,,,,,,,,42.293339,-71.264157,61.333225,-1.000000,-1.000000,1508446898.199351,5
1508446898.234773,-2.810640,1.366918,1.288154,2.266761,-1.679981,0.651592,-0.065791,-0.979289,0.191481,0.007121,-0.545125,0.070283,-1.503858,-27.778559,15.558135,,,,,,,5
,,,,,,,,,,,,,,,,42.293342,-71.264166,61.333225,-1.000000,-1.000000,1508446898.229379,5
1508446898.254792,-2.813809,1.342753,1.284778,0.603429,0.193370,0.228287,-0.072783,-0.974111,0.214035,-0.094713,-0.078807,0.235687,-1.543155,-27.267355,16.433977,,,,,,,5
1508446898.274776,-2.820168,1.336076,1.298652,0.399595,0.294167,-0.141721,-0.073473,-0.972579,0.220660,-0.081998,0.082946,0.183530,-1.543155,-27.267355,16.433977,,,,,,,5
,,,,,,,,,,,,,,,,42.293346,-71.264176,61.333225,-1.000000,-1.000000,1508446898.263293,5
1508446898.294813,-2.852452,1.321158,1.327302,1.131341,-0.589726,-0.040522,-0.070442,-0.969002,0.236799,-0.061775,0.348427,-0.068296,-1.675991,-27.052618,16.772371,,,,,,,5
1508446898.314818,-2.898886,1.290068,1.359601,1.828792,-0.718591,-0.027409,-0.066585,-0.960854,0.268936,-0.147191,0.244789,-0.093353,-1.352999,-26.419819,17.779995,,,,,,,5
1508446898.334838,-2.944967,1.254073,1.396676,1.812980,-0.467380,-0.190255,-0.060846,-0.950261,0.305453,-0.181357,0.079091,-0.124163,-1.352999,-26.419819,17.779995,,,,,,,5
1508446898.354852,-2.979063,1.223461,1.422498,1.446524,-0.501843,-0.076184,-0.055081,-0.940283,0.335907,-0.232029,-0.177148,-0.170410,-0.815228,-25.095930,19.634033,,,,,,,5
1508446898.374854,-2.999256,1.197329,1.430680,1.258904,-0.735835,0.119068,-0.051756,-0.931068,0.361156,-0.137774,-0.090157,-0.253246,-0.647817,-24.683067,20.156689,,,,,,,5
1508446898.394874,-3.016247,1.173338,1.430238,1.150273,-0.926751,0.189365,-0.048391,-0.922048,0.384039,-0.031763,0.003911,-0.254110,-0.397436,-24.172367,20.772682,,,,,,,5
1508446898.414888,-3.036521,1.149759,1.429265,1.202706,-1.166085,0.108696,-0.042865,-0.912666,0.406453,0.183246,0.112662,-0.146901,0.014131,-23.559572,21.468861,,,,,,,5
1508446898.434870,-3.067797,1.123306,1.434234,1.404314,-1.409964,-0.033565,-0.031903,-0.901536,0.431527,0.238003,0.033158,-0.078560,0.394758,-23.152912,21.903250,,,,,,,5
1508446898.454908,-3.101253,1.093744,1.441504,1.491664,-1.260453,-0.099810,-0.018517,-0.888352,0.458789,0.234978,-0.029937,-0.073978,0.870967,-22.686504,22.372517,,,,,,,5
1508446898.474922,-3.130195,1.066427,1.446553,1.278623,-1.267585,-0.045142,-0.005508,-0.875480,0.483224,0.072265,-0.146340,-0.307091,1.499628,-22.010307,23.005716,,,,,,,5
1508446898.494933,3.125525,1.043044,1.445571,1.117815,-1.505161,0.040660,0.008091,-0.863941,0.503527,-0.013737,-0.159160,-0.520037,2.270041,-21.258532,23.640797,,,,,,,5
1508446898.514946,3.095909,1.022891,1.443709,0.916656,-1.543416,0.007028,0.023789,-0.853617,0.520357,-0.045303,-0.274007,-0.502901,2.981774,-20.735985,24.022772,,,,,,,5
1508446898.534961,3.068531,1.009897,1.442748,0.480043,-1.249080,-0.038943,0.038831,-0.846777,0.530529,-0.198941,-0.304163,-0.320934,3.888242,-20.249657,24.306347,,,,,,,5
1508446898.554968,3.052703,1.002563,1.441962,0.331587,-0.565693,0.026362,0.047773,-0.842853,0.536019,-0.402234,-0.364316,-0.113641,4.383131,-20.050653,24.386986,,,,,,,5
1508446898.574977,3.049142,0.998024,1.439218,0.154610,-0.178840,0.046489,0.050033,-0.840402,0.539649,-0.442474,-0.409247,-0.211967,4.497505,-19.974857,24.428326,,,,,,,5
1508446898.594972,3.044993,0.997789,1.438064,-0.067810,-0.395445,0.044489,0.052291,-0.840274,0.539634,-0.566329,-0.528561,-0.730628,4.588296,-19.890614,24.480129,,,,,,,5
1508446898.615005,3.035780,1.004594,1.434256,-0.566212,-0.693197,0.187085,0.056656,-0.843944,0.533431,-0.627594,-0.720860,-0.971175,4.867507,-19.997013,24.339111,,,,,,,5
1508446898.635005,3.027427,1.031393,1.430911,-1.871856,-0.388455,0.251070,0.058511,-0.858016,0.510280,-0.605294,-0.803026,-1.052425,4.867507,-19.997013,24.339111,,,,,,,5
1508446898.655029,3.026638,1.088133,1.438953,-3.342430,0.768363,0.010886,0.053238,-0.885762,0.461076,-0.012344,-0.547557,-0.890474,5.099824,-21.003126,23.427036,,,,,,,5
1508446898.675041,3.021789,1.159686,1.465688,-3.550875,0.894274,-0.165358,0.047762,-0.916678,0.396763,0.283094,-0.241434,-0.352284,4.718651,-22.847389,21.718580,,,,,,,5
