timestamp(unix),attitude_roll(radians),attitude_pitch(radians),attitude_yaw(radians),rotation_rate_x(radians/s),rotation_rate_y(radians/s),rotation_rate_z(radians/s),gravity_x(G),gravity_y(G),gravity_z(G),user_acc_x(G),user_acc_y(G),user_acc_z(G),magnetic_field_x(microteslas),magnetic_field_y(microteslas),magnetic_field_z(microteslas),latitude(degree),longitude(degree),altitude(meter),speed(m/s),course(degree),timestamp(unix),User Mark
1508530892.528844,-0.003170,-0.001856,2.606006,0.162981,0.020163,0.012502,-0.003170,0.001856,-0.999993,0.000271,0.000707,0.098077,12.896333,-6.507065,-22.575016,,,,,,,
,,,,,,,,,,,,,,,,42.293258,-71.263278,58.769871,-1.000000,-1.000000,1508530889.701050,
1508530892.548854,-0.003824,0.003908,2.607079,0.310929,-0.063652,0.065833,-0.003824,-0.003908,-0.999985,0.003381,-0.000562,-0.005081,12.890178,-6.638394,-22.540266,,,,,,,
,,,,,,,,,,,,,,,,42.293258,-71.263278,58.769871,-1.000000,-1.000000,1508530880.701050,
1508530892.568864,-0.007668,0.007078,2.607574,0.043906,-0.277282,-0.003612,-0.007667,-0.007078,-0.999946,0.006569,-0.014711,-0.057000,12.822149,-6.750636,-22.545732,,,,,,,
,,,,,,,,,,,,,,,,42.293258,-71.263278,58.769871,-1.000000,-1.000000,1508530889.701050,
1508530892.588871,-0.014248,0.005599,2.606708,-0.110367,-0.324127,-0.056028,-0.014247,-0.005599,-0.999883,0.006450,-0.005052,-0.028041,12.756028,-6.751617,-22.582916,,,,,,,
1508530892.608879,-0.020049,0.002278,2.605817,-0.068951,-0.222053,-0.023667,-0.020048,-0.002278,-0.999796,-0.008929,0.024312,0.030100,12.560540,-6.666699,-22.717319,,,,,,,
1508530892.628890,-0.023359,0.002257,2.606197,0.038435,-0.135841,0.039040,-0.023357,-0.002257,-0.999725,-0.017705,0.015074,0.026214,12.478934,-6.619011,-22.776161,,,,,,,
1508530892.648898,-0.025709,0.003374,2.607400,0.068196,-0.107099,0.060602,-0.025706,-0.003374,-0.999664,0.001063,0.004411,0.002838,12.411951,-6.650626,-22.803537,,,,,,,
1508530892.668907,-0.027632,0.004012,2.608470,0.011772,-0.092227,0.051630,-0.027629,-0.004012,-0.999610,0.006816,0.000411,-0.013085,12.343809,-6.693530,-22.827957,,,,,,,
1508530892.688910,-0.029749,0.003783,2.609737,-0.029754,-0.117672,0.059786,-0.029745,-0.003783,-0.999550,0.008703,-0.017548,-0.045097,12.290221,-6.709054,-22.852303,,,,,,,
,,,,,,,,,,,,,,,,42.293070,-71.263103,58.769871,-1.000000,-1.000000,1508530892.661502,
1508530892.708924,-0.035067,0.002484,2.610794,-0.058388,-0.336506,0.057254,-0.035059,-0.002484,-0.999382,0.011713,-0.007510,-0.020302,12.290221,-6.709054,-22.852303,,,,,,,
,,,,,,,,,,,,,,,,42.292978,-71.263086,58.769871,-1.000000,-1.000000,1508530892.694634,
1508530892.728929,-0.042443,0.001639,2.612098,0.037427,-0.367314,0.071864,-0.042430,-0.001639,-0.999098,0.007304,0.015570,0.023039,12.102059,-6.693016,-22.957188,,,,,,,
1508530892.748942,-0.048005,0.002940,2.613785,0.073525,-0.199445,0.082936,-0.047986,-0.002940,-0.998844,0.003339,0.004328,0.034046,11.854074,-6.729310,-23.075657,,,,,,,
1508530892.768951,-0.048402,0.003541,2.615439,0.016952,0.095901,0.079498,-0.048383,-0.003541,-0.998823,0.000180,0.003679,0.029050,11.801074,-6.766032,-23.092079,,,,,,,
1508530892.788957,-0.044060,0.003462,2.617416,-0.002354,0.254322,0.114595,-0.044046,-0.003462,-0.999023,0.005975,-0.002229,0.000259,11.869667,-6.794809,-23.048431,,,,,,,
1508530892.808968,-0.039548,0.003114,2.620031,-0.018332,0.189606,0.136774,-0.039537,-0.003114,-0.999213,0.010301,0.000154,-0.000298,11.964069,-6.821130,-22.991777,,,,,,,
1508530892.828960,-0.036261,0.002703,2.622506,0.000940,0.067337,0.110222,-0.036253,-0.002703,-0.999339,0.017881,0.002458,0.002528,12.028796,-6.836423,-22.953432,,,,,,,
1508530892.848984,-0.034584,0.003239,2.624112,0.045807,-0.039027,0.062592,-0.034577,-0.003239,-0.999397,0.016251,-0.002422,-0.008950,12.055756,-6.870656,-22.929054,,,,,,,
1508530892.868995,-0.035850,0.004617,2.625198,0.054388,-0.133607,0.054073,-0.035842,-0.004617,-0.999347,0.016509,-0.005667,-0.010785,12.046391,-6.901822,-22.924616,,,,,,,
1508530892.889002,-0.038278,0.005353,2.626508,0.018164,-0.143092,0.069739,-0.038268,-0.005353,-0.999253,0.014892,-0.003299,-0.009948,12.005930,-6.947573,-22.932020,,,,,,,
1508530892.909005,-0.038383,0.005493,2.627295,0.006470,0.016069,0.013331,-0.038373,-0.005493,-0.999248,0.019070,0.001480,0.013729,11.937668,-6.974067,-22.959599,,,,,,,
1508530892.929021,-0.035441,0.006049,2.627175,-0.011628,0.090368,-0.009121,-0.035433,-0.006049,-0.999354,0.015536,-0.010400,0.004572,12.001038,-6.976825,-22.925697,,,,,,,
1508530892.949028,-0.033740,0.006415,2.627114,0.000097,0.031969,0.000515,-0.033733,-0.006415,-0.999410,0.010875,-0.011301,0.004995,12.037658,-6.983343,-22.904505,,,,,,,
,,,,,,,,,,,,,,,,42.292884,-71.263067,58.769871,-1.000000,-1.000000,1508530892.919986,
1508530892.969038,-0.033562,0.007177,2.626974,0.005494,-0.063690,-0.013355,-0.033555,-0.007177,-0.999411,0.008760,-0.005289,0.000647,12.071382,-7.003245,-22.880669,,,,,,,
,,,,,,,,,,,,,,,,42.292795,-71.263051,58.769871,-1.000000,-1.000000,1508530892.957069,
1508530892.989028,-0.034528,0.007605,2.626603,0.006588,-0.099829,-0.019761,-0.034520,-0.007605,-0.999375,0.006535,-0.005381,-0.001922,12.058506,-7.008754,-22.885771,,,,,,,
1508530893.009055,-0.036165,0.007857,2.626320,-0.000894,-0.073233,-0.010220,-0.036156,-0.007857,-0.999315,0.003487,-0.005662,0.002840,12.032393,-7.011486,-22.898672,,,,,,,
1508530893.029064,-0.036474,0.008055,2.626207,-0.003071,0.003277,-0.004856,-0.036465,-0.008055,-0.999303,0.004406,-0.002962,0.009633,12.007321,-7.016001,-22.910448,,,,,,,
1508530893.049072,-0.035327,0.007890,2.626065,0.007547,0.068067,-0.006849,-0.035319,-0.007890,-0.999345,0.002543,0.004990,0.015397,12.021349,-7.015306,-22.903303,,,,,,,
,,,,,,,,,,,,,,,,42.293287,-71.263247,58.762432,-1.000000,-1.000000,1508530893.028286,
1508530893.069064,-0.033884,0.007900,2.626100,0.019240,0.059608,0.006018,-0.033876,-0.007900,-0.999395,0.002306,0.010464,0.002431,12.054868,-7.015199,-22.885712,,,,,,,
1508530893.089092,-0.033431,0.007863,2.626321,0.012875,-0.004114,0.010176,-0.033424,-0.007863,-0.999410,0.005378,0.010655,-0.006312,12.080753,-7.012736,-22.872814,,,,,,,
1508530893.109099,-0.033933,0.007514,2.626332,0.005476,-0.064715,-0.004837,-0.033926,-0.007514,-0.999396,0.005941,0.006248,-0.004312,12.077428,-7.010600,-22.875223,,,,,,,
1508530893.129085,-0.035859,0.007668,2.626195,0.012951,-0.104029,-0.005870,-0.035851,-0.007667,-0.999328,-0.002098,0.001686,-0.002091,12.059609,-7.007532,-22.885565,,,,,,,
1508530893.149119,-0.038581,0.008120,2.626470,0.023541,-0.104982,0.027224,-0.038570,-0.008120,-0.999223,-0.008763,-0.002256,0.006486,11.980632,-7.016500,-22.924263,,,,,,,
1508530893.169125,-0.040117,0.008704,2.627401,0.027713,-0.023092,0.053939,-0.040105,-0.008704,-0.999158,-0.000743,-0.000131,0.015362,11.925131,-7.040898,-22.945711,,,,,,,
1508530893.189129,-0.038933,0.009037,2.628570,0.013801,0.103348,0.058178,-0.038922,-0.009036,-0.999201,0.001507,0.001636,0.016108,11.918576,-7.054022,-22.945086,,,,,,,
1508530893.209123,-0.035622,0.008943,2.629766,-0.004329,0.149051,0.061258,-0.035613,-0.008943,-0.999326,0.010451,-0.000167,0.003781,11.984361,-7.080006,-22.902779,,,,,,,
1508530893.229151,-0.032904,0.009017,2.630989,0.001032,0.075750,0.061247,-0.032897,-0.009017,-0.999418,0.009612,-0.004213,-0.001436,12.047405,-7.094228,-22.865273,,,,,,,
1508530893.249160,-0.032495,0.009386,2.632075,0.019214,-0.045404,0.049593,-0.032488,-0.009386,-0.999428,0.007372,-0.003172,-0.004951,12.068258,-7.110848,-22.849108,,,,,,,
1508530893.269169,-0.034665,0.010087,2.632959,0.036316,-0.143181,0.040078,-0.034656,-0.010087,-0.999348,0.001499,-0.002441,-0.002376,12.023899,-7.141748,-22.862850,,,,,,,
1508530893.289155,-0.037678,0.010812,2.633766,0.033125,-0.141061,0.037923,-0.037667,-0.010811,-0.999232,0.001229,-0.000480,0.000773,11.949789,-7.170321,-22.892742,,,,,,,
1508530893.309187,-0.039692,0.011234,2.634611,0.009656,-0.069855,0.043107,-0.039679,-0.011234,-0.999149,0.000464,-0.003476,0.004337,11.916540,-7.181888,-22.906445,,,,,,,
1508530893.329195,-0.040294,0.011340,2.635548,0.003211,0.017285,0.050573,-0.040280,-0.011340,-0.999124,-0.010288,-0.002545,0.008447,11.866711,-7.205953,-22.924747,,,,,,,
1508530893.349196,-0.039581,0.011464,2.636681,0.008490,0.077864,0.059180,-0.039568,-0.011464,-0.999151,-0.005064,-0.000148,0.011389,11.860129,-7.211017,-22.926561,,,,,,,
1508530893.369215,-0.037343,0.011523,2.637926,0.012724,0.115056,0.062438,-0.037332,-0.011522,-0.999236,0.006220,0.004122,0.007293,11.876595,-7.233174,-22.911053,,,,,,,
1508530893.389222,-0.034281,0.011386,2.639032,0.008484,0.121387,0.048566,-0.034272,-0.011386,-0.999348,0.011689,0.007022,-0.000408,11.929300,-7.247098,-22.879248,,,,,,,
1508530893.409230,-0.031411,0.010888,2.639717,0.002158,0.076691,0.023991,-0.031404,-0.010888,-0.999447,0.011674,0.008004,-0.000125,12.019613,-7.256759,-22.828865,,,,,,,
1508530893.429239,-0.030492,0.010803,2.639837,0.013954,0.006472,-0.004713,-0.030485,-0.010803,-0.999477,0.010985,0.010315,0.002315,12.040212,-7.255565,-22.818386,,,,,,,
1508530893.449227,-0.030394,0.010730,2.639420,0.031051,-0.032930,-0.030156,-0.030387,-0.010730,-0.999481,0.011283,0.014118,0.008392,12.059872,-7.248648,-22.810200,,,,,,,
1508530893.469257,-0.030408,0.010688,2.638639,0.023619,-0.038279,-0.042998,-0.030401,-0.010688,-0.999481,0.010458,0.004279,0.004791,12.062029,-7.237875,-22.812481,,,,,,,
1508530893.489269,-0.030775,0.010959,2.637719,0.006582,-0.021286,-0.047384,-0.030768,-0.010959,-0.999466,0.010856,0.000690,0.003068,12.061773,-7.235319,-22.813427,,,,,,,
1508530893.509264,-0.030562,0.011282,2.636807,0.002300,0.008482,-0.042073,-0.030555,-0.011282,-0.999469,0.009879,-0.009729,0.006000,12.065845,-7.222653,-22.815289,,,,,,,
1508530893.529284,-0.029823,0.011920,2.636109,0.008663,0.020211,-0.029235,-0.029816,-0.011920,-0.999484,0.008271,-0.010312,0.003619,12.087758,-7.226356,-22.802511,,,,,,,
1508530893.549160,-0.029398,0.012445,2.635602,0.021442,0.003224,-0.024883,-0.029392,-0.012445,-0.999490,0.008487,-0.007330,0.000971,12.098677,-7.230913,-22.795277,,,,,,,
1508530893.569196,-0.029523,0.013423,2.635063,0.026797,-0.036102,-0.030192,-0.029516,-0.013422,-0.999474,0.005301,-0.011694,-0.002754,12.110283,-7.243984,-22.784962,,,,,,,
1508530893.589205,-0.030840,0.014488,2.634559,0.015100,-0.090244,-0.021811,-0.030832,-0.014487,-0.999420,0.000528,-0.012857,-0.007996,12.093155,-7.261819,-22.788380,,,,,,,
1508530893.609213,-0.033105,0.014821,2.634181,0.000206,-0.122095,-0.018764,-0.033095,-0.014820,-0.999342,0.002699,-0.009975,-0.003557,12.072875,-7.268864,-22.796885,,,,,,,
1508530893.629221,-0.035315,0.015068,2.633609,0.010865,-0.089224,-0.034622,-0.035304,-0.015067,-0.999263,-0.002859,-0.005044,0.016231,11.999695,-7.267538,-22.835913,,,,,,,
1508530893.649230,-0.036977,0.015618,2.632801,0.021507,-0.051013,-0.041959,-0.036964,-0.015617,-0.999195,-0.009301,-0.001244,0.011630,11.971270,-7.271107,-22.849691,,,,,,,
1508530893.669239,-0.038772,0.016068,2.632115,0.022559,-0.058421,-0.032373,-0.038757,-0.016067,-0.999119,-0.015503,0.002807,0.001134,11.952268,-7.272099,-22.859322,,,,,,,
1508530893.689249,-0.040776,0.016193,2.631569,0.018292,-0.063715,-0.027088,-0.040760,-0.016192,-0.999038,-0.015103,0.008578,0.000991,11.906231,-7.271497,-22.883524,,,,,,,
1508530893.709258,-0.042432,0.016018,2.631112,0.015060,-0.021199,-0.019630,-0.042414,-0.016017,-0.998972,-0.009984,0.006404,0.009760,11.850451,-7.261676,-22.915573,,,,,,,
1508530893.729265,-0.042459,0.016488,2.631036,0.039484,0.018184,0.006156,-0.042441,-0.016488,-0.998963,-0.007425,0.004525,0.005326,11.842885,-7.260313,-22.919916,,,,,,,
1508530893.749274,-0.042347,0.017575,2.631557,0.077782,0.003370,0.028820,-0.042327,-0.017574,-0.998949,-0.003174,0.007260,-0.002622,11.842858,-7.273685,-22.915689,,,,,,,
1508530893.769284,-0.043370,0.018706,2.632233,0.084199,-0.060375,0.028825,-0.043349,-0.018705,-0.998885,-0.007524,0.008512,-0.003511,11.826644,-7.326207,-22.907331,,,,,,,
1508530893.789294,-0.045860,0.020043,2.632904,0.071447,-0.130466,0.033990,-0.045834,-0.020041,-0.998748,-0.014407,0.009025,-0.001954,11.792106,-7.355378,-22.915789,,,,,,,
1508530893.809299,-0.050402,0.021599,2.634124,0.067124,-0.133527,0.072283,-0.050369,-0.021597,-0.998497,-0.028306,-0.010019,0.021156,11.674231,-7.405288,-22.960024,,,,,,,
1508530893.829309,-0.051924,0.023012,2.636283,0.085086,-0.027131,0.121490,-0.051887,-0.023010,-0.998388,-0.024209,-0.014664,0.024725,11.599703,-7.464874,-22.978495,,,,,,,
1508530893.849302,-0.050599,0.024681,2.639249,0.079622,0.135528,0.155640,-0.050562,-0.024678,-0.998416,-0.005560,-0.003718,0.009463,11.587343,-7.520113,-22.966717,,,,,,,
1508530893.869321,-0.046510,0.025178,2.642652,0.031649,0.215338,0.172332,-0.046478,-0.025175,-0.998602,0.005890,0.013258,-0.005350,11.650691,-7.604481,-22.906811,,,,,,,
1508530893.889336,-0.042361,0.025038,2.645911,0.002954,0.177039,0.151837,-0.042335,-0.025036,-0.998790,0.006019,0.009105,-0.004094,11.729982,-7.640290,-22.854368,,,,,,,
1508530893.909329,-0.039535,0.025293,2.648328,0.027574,0.091867,0.101932,-0.039512,-0.025290,-0.998899,0.013953,-0.002695,0.006284,11.776553,-7.668042,-22.821100,,,,,,,
1508530893.929354,-0.038508,0.026455,2.650005,0.044710,-0.012340,0.075376,-0.038485,-0.026452,-0.998909,0.019565,-0.013587,0.010094,11.796343,-7.715417,-22.794895,,,,,,,
1508530893.949363,-0.039990,0.026942,2.651471,0.016015,-0.102639,0.070812,-0.039965,-0.026938,-0.998838,0.020785,-0.012536,0.003446,11.774070,-7.756511,-22.792465,,,,,,,
1508530893.969357,-0.042682,0.027323,2.652858,0.030948,-0.149396,0.068771,-0.042653,-0.027319,-0.998716,0.019109,-0.007944,-0.002336,11.743789,-7.768370,-22.804047,,,,,,,
1508530893.989358,-0.046892,0.027940,2.654519,0.062884,-0.212021,0.089217,-0.046856,-0.027936,-0.998511,-0.013843,0.013120,0.000144,11.618374,-7.819085,-22.850906,,,,,,,
1508530894.009388,-0.055787,0.028831,2.656095,0.032242,-0.612574,0.069496,-0.055735,-0.028827,-0.998029,-0.009984,-0.003277,-0.000918,11.447384,-7.853135,-22.925407,,,,,,,
1508530894.029386,-0.065396,0.031021,2.657651,0.141734,-0.253568,0.068542,-0.065318,-0.031016,-0.997382,-0.011159,-0.000081,0.037009,11.290155,-7.873991,-22.996115,,,,,,,
1508530894.049407,-0.060968,0.032830,2.659683,0.047586,0.476475,0.117295,-0.060897,-0.032825,-0.997604,-0.024644,-0.002088,0.060089,11.172607,-7.985379,-23.015108,,,,,,,
1508530894.069397,-0.047327,0.032396,2.662891,-0.032515,0.738081,0.182846,-0.047285,-0.032391,-0.998356,0.005887,-0.009235,0.000691,11.358330,-8.014462,-22.913870,,,,,,,
1508530894.089423,-0.034931,0.032037,2.666359,0.005980,0.502131,0.156366,-0.034906,-0.032032,-0.998877,0.018106,-0.009442,-0.030069,11.586117,-8.035654,-22.792078,,,,,,,
1508530894.109433,-0.030975,0.032570,2.668409,0.035147,-0.011315,0.063586,-0.030954,-0.032564,-0.998990,0.034768,-0.009550,-0.040820,11.807852,-8.073930,-22.664398,,,,,,,
1508530894.129441,-0.036132,0.033342,2.668329,0.022754,-0.418534,-0.039040,-0.036104,-0.033336,-0.998792,0.017886,-0.003270,-0.014392,11.773045,-8.117154,-22.667067,,,,,,,
1508530894.149451,-0.043135,0.033314,2.666976,-0.028357,-0.295393,-0.072375,-0.043097,-0.033308,-0.998515,0.008078,-0.000063,0.008968,11.773045,-8.117154,-22.667067,,,,,,,
1508530894.169461,-0.049109,0.032488,2.666136,-0.050798,-0.350403,-0.009782,-0.049063,-0.032483,-0.998267,0.025656,-0.002948,0.012382,11.487096,-8.077301,-22.827450,,,,,,,
1508530894.189469,-0.058732,0.032111,2.666346,0.024887,-0.564995,0.000263,-0.058668,-0.032105,-0.997761,0.033949,0.017564,0.041752,11.279039,-8.068539,-22.934050,,,,,,,
1508530894.209479,-0.063031,0.031234,2.665366,-0.083921,0.097703,-0.072537,-0.062959,-0.031229,-0.997527,0.028779,0.041406,0.085128,11.132066,-8.058375,-23.009312,,,,,,,
1508530894.229465,-0.055383,0.031502,2.664292,0.011633,0.445243,-0.012924,-0.055327,-0.031497,-0.997971,-0.008272,-0.027662,-0.018798,11.268243,-8.007705,-22.960661,,,,,,,
1508530894.249495,-0.047665,0.031522,2.666227,-0.055657,0.315165,0.145069,-0.047623,-0.031517,-0.998368,-0.024230,-0.018761,-0.008727,11.449226,-8.048614,-22.856590,,,,,,,
1508530894.269498,-0.041846,0.027665,2.668433,-0.223774,0.291681,0.087232,-0.041817,-0.027661,-0.998742,-0.030372,-0.033618,0.016717,11.505663,-8.044372,-22.829727,,,,,,,
1508530894.289510,-0.037151,0.024144,2.669802,-0.108736,0.219362,0.081738,-0.037132,-0.024142,-0.999019,-0.008095,0.019625,0.005397,11.668686,-7.938498,-22.784000,,,,,,,
1508530894.309521,-0.032675,0.024464,2.671327,0.109592,0.162889,0.065397,-0.032660,-0.024461,-0.999167,0.013891,0.009675,0.011374,11.753119,-7.948274,-22.737148,,,,,,,
1508530894.329521,-0.030731,0.028108,2.672347,0.217218,0.076697,0.040666,-0.030714,-0.028104,-0.999133,0.012739,0.025083,0.022143,11.793851,-7.976739,-22.706064,,,,,,,
1508530894.349540,-0.029892,0.032500,2.673374,0.221493,-0.000810,0.053420,-0.029871,-0.032494,-0.999025,0.002558,0.031426,0.008440,11.833327,-8.133601,-22.629751,,,,,,,
1508530894.369519,-0.032317,0.036382,2.675269,0.302382,-0.145140,0.108281,-0.032290,-0.036374,-0.998816,-0.006330,0.040616,-0.026101,11.784014,-8.231243,-22.620174,,,,,,,
1508530894.389534,-0.035120,0.042951,2.678278,0.330003,-0.140785,0.142584,-0.035081,-0.042938,-0.998462,-0.010574,0.045532,-0.011807,11.744289,-8.316490,-22.609652,,,,,,,
1508530894.409565,-0.037189,0.048582,2.680961,0.271457,-0.071800,0.114470,-0.037137,-0.048562,-0.998130,-0.026935,0.020273,0.058875,11.627131,-8.575912,-22.573263,,,,,,,
1508530894.429565,-0.042726,0.054562,2.683812,0.348192,-0.299108,0.137291,-0.042650,-0.054534,-0.997601,-0.039122,0.008316,0.076534,11.509563,-8.733525,-22.573086,,,,,,,
1508530894.449584,-0.049706,0.062500,2.687393,0.421631,-0.310763,0.157054,-0.049588,-0.062459,-0.996815,-0.056094,-0.002299,0.090748,11.509563,-8.733525,-22.573086,,,,,,,
1508530894.469577,-0.056245,0.070808,2.690537,0.412120,-0.294984,0.112268,-0.056075,-0.070748,-0.995917,-0.014497,-0.024177,0.002661,11.159462,-9.168388,-22.576443,,,,,,,
1508530894.489600,-0.060710,0.078677,2.692399,0.303561,-0.168713,0.052906,-0.060485,-0.078596,-0.995070,0.013824,-0.023729,-0.016252,11.019704,-9.360544,-22.566236,,,,,,,
1508530894.509609,-0.060952,0.082801,2.693816,0.161784,0.103379,0.070042,-0.060706,-0.082706,-0.994723,0.014548,-0.030117,-0.030927,11.019704,-9.360544,-22.566236,,,,,,,
1508530894.529619,-0.056831,0.085450,2.695449,0.138306,0.228728,0.064619,-0.056593,-0.085346,-0.994743,0.017790,-0.008633,-0.068764,11.012207,-9.544078,-22.492899,,,,,,,
1508530894.549628,-0.053261,0.088123,2.696670,0.139450,0.115013,0.050701,-0.053029,-0.088009,-0.994707,0.006215,0.004055,-0.065229,11.139842,-9.656227,-22.381908,,,,,,,
1508530894.569612,-0.052096,0.089839,2.698109,0.057436,0.058866,0.082989,-0.051863,-0.089718,-0.994616,0.025465,-0.002201,-0.030561,11.156914,-9.691174,-22.358290,,,,,,,
1508530894.589633,-0.048860,0.088519,2.699999,-0.026765,0.155651,0.100468,-0.048649,-0.088403,-0.994896,0.030949,0.031397,0.010872,11.181181,-9.750571,-22.320309,,,,,,,
1508530894.609653,-0.045778,0.087160,2.701189,-0.086271,0.129973,0.039267,-0.045588,-0.087050,-0.995160,0.034617,0.008726,-0.036151,11.269568,-9.716524,-22.290684,,,,,,,
1508530894.629636,-0.044550,0.084822,2.701503,-0.130909,0.056605,0.013289,-0.044375,-0.084721,-0.995416,0.023058,0.004856,-0.053641,11.290467,-9.699512,-22.287518,,,,,,,
1508530894.649662,-0.041437,0.081610,2.701403,-0.151173,0.159628,0.002552,-0.041288,-0.081519,-0.995816,0.017911,0.008857,-0.001697,11.344178,-9.612843,-22.297792,,,,,,,
1508530894.669682,-0.038653,0.079474,2.701119,-0.079777,0.120208,-0.019248,-0.038521,-0.079391,-0.996099,0.020027,0.010421,-0.002223,11.408896,-9.562288,-22.286507,,,,,,,
1508530894.689663,-0.036857,0.077779,2.700340,-0.108451,0.058521,-0.044020,-0.036737,-0.077701,-0.996300,0.018030,0.003543,-0.017342,11.451900,-9.531298,-22.277723,,,,,,,
1508530894.709683,-0.036006,0.074334,2.699174,-0.176558,0.012848,-0.053135,-0.035899,-0.074265,-0.996592,0.004359,0.004655,0.015208,11.497066,-9.435378,-22.295286,,,,,,,
1508530894.729707,-0.036748,0.070030,2.698318,-0.231923,-0.060354,-0.033417,-0.036650,-0.069973,-0.996875,0.007704,0.020092,0.065876,11.504308,-9.327789,-22.336784,,,,,,,
1508530894.749691,-0.036560,0.067203,2.697473,-0.073329,0.060654,-0.037340,-0.036470,-0.067152,-0.997076,0.011079,0.021712,0.087713,11.496363,-9.274833,-22.362911,,,,,,,
1508530894.769701,-0.032788,0.067179,2.696478,0.061856,0.183762,-0.053167,-0.032708,-0.067129,-0.997208,0.013711,0.017934,0.035675,11.577857,-9.210992,-22.347248,,,,,,,
1508530894.789735,-0.028999,0.067573,2.695535,-0.019077,0.192320,-0.048505,-0.028929,-0.067521,-0.997298,0.010191,0.018830,0.023406,11.645716,-9.218893,-22.308699,,,,,,,
1508530894.809741,-0.025400,0.065774,2.694389,-0.056290,0.112628,-0.059520,-0.025342,-0.065727,-0.997516,0.007047,0.019447,-0.013181,11.738085,-9.196709,-22.269409,,,,,,,
1508530894.829751,-0.025230,0.064751,2.693084,-0.046618,-0.055236,-0.062761,-0.025174,-0.064706,-0.997587,-0.000277,0.018670,-0.001925,11.798105,-9.128606,-22.265713,,,,,,,
1508530894.849761,-0.026850,0.063865,2.691764,0.005574,-0.094576,-0.064489,-0.026792,-0.063822,-0.997602,0.000715,0.014261,0.007703,11.783248,-9.104944,-22.283262,,,,,,,
1508530894.869769,-0.028630,0.064438,2.690335,0.026894,-0.076531,-0.079212,-0.028566,-0.064393,-0.997516,0.006563,0.015443,0.033221,11.751963,-9.081554,-22.309313,,,,,,,
1508530894.889779,-0.029010,0.064292,2.688484,-0.001845,-0.034084,-0.097518,-0.028946,-0.064248,-0.997514,0.010315,0.010445,0.030198,11.735700,-9.067218,-22.323700,,,,,,,
1508530894.909786,-0.029337,0.064141,2.686351,-0.018865,-0.020309,-0.110425,-0.029273,-0.064097,-0.997514,0.010260,-0.000493,-0.000929,11.745501,-9.052838,-22.324383,,,,,,,
1508530894.929796,-0.029579,0.063627,2.684008,-0.027361,-0.041573,-0.116900,-0.029515,-0.063584,-0.997540,0.002934,-0.002761,-0.040561,11.757364,-9.013590,-22.334017,,,,,,,
1508530894.949806,-0.030973,0.063475,2.681827,-0.003943,-0.089330,-0.099707,-0.030906,-0.063433,-0.997507,-0.003091,-0.001677,-0.054617,11.765253,-8.973538,-22.345987,,,,,,,
1508530894.969814,-0.031503,0.062924,2.679874,-0.041249,-0.029798,-0.094646,-0.031436,-0.062882,-0.997526,0.013720,-0.000960,-0.029925,11.753440,-8.926225,-22.371138,,,,,,,
1508530894.989805,-0.030875,0.061071,2.677605,-0.128545,0.042388,-0.122995,-0.030813,-0.061033,-0.997660,0.013021,0.000654,-0.026357,11.758262,-8.903217,-22.377773,,,,,,,
1508530895.009830,-0.030504,0.057141,2.674057,-0.214614,-0.064046,-0.194059,-0.030450,-0.057110,-0.997903,0.004708,-0.000049,0.016214,11.817174,-8.751801,-22.406450,,,,,,,
1508530895.029840,-0.032336,0.052837,2.669747,-0.215630,-0.108715,-0.209008,-0.032285,-0.052813,-0.998082,-0.006075,-0.005308,0.038930,11.811275,-8.604019,-22.466715,,,,,,,
1508530895.049849,-0.034096,0.049592,2.666012,-0.133750,-0.078831,-0.157202,-0.034047,-0.049572,-0.998190,-0.022075,-0.003453,0.051687,11.800305,-8.501381,-22.511509,,,,,,,
1508530895.069849,-0.035986,0.048213,2.663586,-0.030578,-0.047897,-0.104154,-0.035937,-0.048194,-0.998191,-0.012876,0.005836,0.040763,11.770622,-8.397547,-22.565956,,,,,,,
1508530895.089867,-0.036422,0.048685,2.662032,0.032152,-0.013788,-0.062085,-0.036371,-0.048665,-0.998153,-0.019415,0.006917,0.024291,11.769353,-8.379719,-22.573244,,,,,,,
1508530895.109874,-0.037011,0.048665,2.661217,-0.004116,0.030929,-0.037862,-0.036959,-0.048646,-0.998132,-0.013517,0.005814,-0.009894,11.755060,-8.372540,-22.583353,,,,,,,
1508530895.129884,-0.035579,0.048797,2.660443,0.022474,0.093586,-0.039724,-0.035529,-0.048777,-0.998178,-0.005120,0.007014,0.002938,11.789566,-8.361176,-22.569572,,,,,,,
1508530895.149871,-0.033084,0.049661,2.659601,0.073569,0.140277,-0.046720,-0.033037,-0.049641,-0.998221,0.003908,0.009266,0.008215,11.831345,-8.366738,-22.545635,,,,,,,
1508530895.169902,-0.030607,0.051052,2.658649,0.055500,0.095649,-0.052227,-0.030562,-0.051030,-0.998229,0.008360,0.011098,0.002822,11.882152,-8.375772,-22.515541,,,,,,,
1508530895.189912,-0.029590,0.051395,2.657574,0.019332,0.026616,-0.052578,-0.029546,-0.051372,-0.998242,0.000280,0.008220,0.010831,11.952891,-8.390686,-22.472506,,,,,,,
1508530895.209899,-0.029019,0.051315,2.656696,0.000127,0.055356,-0.038873,-0.028977,-0.051293,-0.998263,-0.008835,0.003167,0.003589,11.967912,-8.380315,-22.468380,,,,,,,
1508530895.229928,-0.027339,0.050998,2.656118,-0.021226,0.128707,-0.027281,-0.027301,-0.050976,-0.998327,-0.010099,0.002087,-0.002406,11.986547,-8.367524,-22.463213,,,,,,,
1508530895.249938,-0.024711,0.050508,2.655636,-0.025508,0.168020,-0.025157,-0.024677,-0.050486,-0.998420,-0.008831,-0.004125,-0.007699,12.026322,-8.348856,-22.448895,,,,,,,
1508530895.269947,-0.023510,0.050345,2.655072,-0.033987,0.103206,-0.027406,-0.023478,-0.050323,-0.998457,-0.012502,-0.002792,0.005262,12.109141,-8.330943,-22.410995,,,,,,,
1508530895.289954,-0.022031,0.049406,2.654744,-0.047847,0.075654,-0.009441,-0.022002,-0.049386,-0.998537,-0.008851,0.001931,0.008166,12.123867,-8.322308,-22.406240,,,,,,,
1508530895.309938,-0.021675,0.048336,2.654726,-0.029726,-0.009301,0.002357,-0.021648,-0.048317,-0.998597,-0.000431,0.005074,0.008653,12.157205,-8.285651,-22.401764,,,,,,,
1508530895.329973,-0.023549,0.048137,2.654772,0.017209,-0.177180,0.000488,-0.023519,-0.048118,-0.998565,0.002935,0.005180,0.001952,12.131664,-8.276870,-22.418850,,,,,,,
1508530895.349972,-0.029125,0.048675,2.654681,0.031136,-0.320632,-0.008023,-0.029086,-0.048656,-0.998392,-0.000516,0.005107,0.002115,12.087003,-8.278993,-22.442177,,,,,,,
1508530895.369967,-0.035816,0.048672,2.654603,0.001289,-0.272796,-0.002910,-0.035766,-0.048652,-0.998175,-0.015916,0.004020,-0.004877,11.876228,-8.287242,-22.551395,,,,,,,
1508530895.390001,-0.040240,0.048496,2.654741,-0.021167,-0.129326,0.010855,-0.040182,-0.048477,-0.998016,-0.014933,-0.003586,-0.004639,11.762830,-8.282268,-22.612574,,,,,,,
1508530895.410006,-0.041491,0.047889,2.655257,-0.037242,-0.004940,0.035306,-0.041431,-0.047871,-0.997994,-0.008877,-0.003414,0.001687,11.725986,-8.280869,-22.632215,,,,,,,
1508530895.430018,-0.040406,0.047571,2.656076,-0.005359,0.088556,0.043093,-0.040349,-0.047553,-0.998053,0.013982,0.000678,0.012809,11.712077,-8.276905,-22.640865,,,,,,,
1508530895.450027,-0.037707,0.047710,2.656947,0.009557,0.059880,0.045324,-0.037655,-0.047692,-0.998152,0.018368,0.000161,-0.007036,11.761869,-8.290113,-22.610199,,,,,,,
1508530895.470036,-0.036671,0.047600,2.657696,-0.009578,0.032238,0.035562,-0.036621,-0.047582,-0.998196,0.016769,0.001607,0.000439,11.781390,-8.296495,-22.597691,,,,,,,
1508530895.490045,-0.034716,0.047152,2.658203,-0.013825,0.056632,0.021704,-0.034670,-0.047135,-0.998287,0.016161,0.002717,0.007991,11.821447,-8.298739,-22.575937,,,,,,,
1508530895.510041,-0.032816,0.046864,2.658371,0.000040,0.058702,0.006913,-0.032774,-0.046846,-0.998364,0.012434,0.002672,0.011578,11.858184,-8.293695,-22.558519,,,,,,,
1508530895.530062,-0.031289,0.046905,2.658421,0.010692,0.063996,0.002746,-0.031250,-0.046888,-0.998411,0.010818,0.003584,0.003965,11.885090,-8.293259,-22.544516,,,,,,,
1508530895.550071,-0.029144,0.046937,2.658528,0.014939,0.069326,0.007045,-0.029108,-0.046920,-0.998474,0.009149,0.001266,0.008393,11.946428,-8.295652,-22.511190,,,,,,,
1508530895.570081,-0.027757,0.047119,2.658519,0.014967,0.052289,-0.004680,-0.027722,-0.047102,-0.998505,0.007062,0.004316,0.007111,11.974493,-8.299253,-22.494947,,,,,,,
1508530895.590090,-0.026646,0.047072,2.658318,0.003277,0.036332,-0.013307,-0.026613,-0.047055,-0.998538,0.004366,0.003460,0.001605,11.997158,-8.300926,-22.482248,,,,,,,
1508530895.610097,-0.025616,0.047077,2.657983,0.004341,0.052253,-0.017545,-0.025585,-0.047060,-0.998564,0.002407,0.002840,-0.000001,12.024173,-8.295576,-22.469788,,,,,,,
1508530895.630106,-0.024116,0.046993,2.657583,-0.003109,0.058618,-0.021861,-0.024087,-0.046975,-0.998606,0.004098,0.001962,-0.006674,12.070143,-8.288297,-22.447817,,,,,,,
1508530895.650115,-0.022844,0.046854,2.657160,-0.005246,0.058635,-0.017619,-0.022817,-0.046837,-0.998642,0.002263,0.000878,-0.005234,12.070143,-8.288297,-22.447817,,,,,,,
1508530895.670108,-0.021683,0.046611,2.656848,-0.006303,0.029965,-0.014455,-0.021657,-0.046595,-0.998679,0.003515,0.004389,0.003226,12.134035,-8.271441,-22.419569,,,,,,,
1508530895.690134,-0.021726,0.046358,2.656673,-0.012681,-0.025239,-0.004967,-0.021701,-0.046341,-0.998690,0.003573,0.004486,0.004748,12.140944,-8.263854,-22.418629,,,,,,,
1508530895.710144,-0.023242,0.045674,2.656542,-0.038189,-0.116586,-0.005247,-0.023215,-0.045658,-0.998687,0.004127,0.004261,-0.008179,12.130533,-8.251743,-22.428722,,,,,,,
1508530895.730138,-0.025044,0.044340,2.656308,-0.074399,-0.075162,-0.012967,-0.025017,-0.044326,-0.998704,0.002052,0.001067,-0.002868,12.074027,-8.220037,-22.470816,,,,,,,
1508530895.750160,-0.026066,0.042505,2.656119,-0.106388,-0.024109,-0.000416,-0.026040,-0.042492,-0.998757,-0.003501,-0.003192,0.003579,12.048485,-8.179486,-22.499304,,,,,,,
1508530895.770169,-0.025902,0.040277,2.656514,-0.127773,0.037698,0.040989,-0.025878,-0.040267,-0.998854,-0.016923,-0.008439,0.011824,12.041378,-8.147170,-22.514830,,,,,,,
1508530895.790179,-0.025021,0.037250,2.656458,-0.145708,-0.042215,-0.031622,-0.025001,-0.037242,-0.998994,0.037055,-0.005849,-0.021743,12.050584,-8.075441,-22.535736,,,,,,,
1508530895.810187,-0.027475,0.034287,2.655264,-0.180738,-0.182492,-0.051183,-0.027456,-0.034281,-0.999035,-0.003550,-0.009192,-0.015217,12.039045,-7.993611,-22.571047,,,,,,,
1508530895.830198,-0.030185,0.032305,2.655014,-0.049950,-0.064409,0.016000,-0.030165,-0.032299,-0.999023,-0.012651,-0.011478,0.006866,12.000297,-7.953075,-22.605976,,,,,,,
1508530895.850205,-0.029912,0.033091,2.655542,0.045823,0.025862,0.022183,-0.029891,-0.033085,-0.999005,0.011596,-0.003246,-0.005481,11.952638,-7.942907,-22.634781,,,,,,,
1508530895.870214,-0.028600,0.033240,2.655620,-0.008444,0.048109,-0.004867,-0.028580,-0.033234,-0.999039,0.010041,0.006852,0.004975,11.979219,-7.960117,-22.614674,,,,,,,
1508530895.890222,-0.027351,0.032130,2.655256,-0.068038,0.048077,-0.023459,-0.027333,-0.032124,-0.999110,0.008824,0.004201,0.016871,11.996644,-7.951564,-22.608444,,,,,,,
1508530895.910232,-0.026245,0.030993,2.654422,-0.055217,0.043740,-0.046781,-0.026229,-0.030988,-0.999176,-0.000993,-0.008899,0.033782,12.045616,-7.894053,-22.602560,,,,,,,
1508530895.930217,-0.026533,0.031196,2.653470,0.006577,-0.005186,-0.047294,-0.026517,-0.031191,-0.999162,-0.015628,-0.011243,0.017198,12.056392,-7.882504,-22.600845,,,,,,,
1508530895.950249,-0.027035,0.031723,2.652630,0.031064,-0.039155,-0.036470,-0.027019,-0.031718,-0.999132,-0.016362,-0.015966,-0.002120,12.052104,-7.881740,-22.603397,,,,,,,
1508530895.970258,-0.028102,0.032631,2.652106,0.003363,-0.036976,-0.024985,-0.028083,-0.032625,-0.999073,-0.006402,-0.021788,0.003284,12.033200,-7.886891,-22.611671,,,,,,,
1508530895.990267,-0.028565,0.033124,2.651527,-0.020063,0.004435,-0.033665,-0.028545,-0.033118,-0.999044,-0.012195,-0.017022,0.007451,12.024962,-7.896276,-22.612778,,,,,,,
1508530896.010252,-0.029206,0.033211,2.650792,-0.014719,-0.015770,-0.037895,-0.029186,-0.033205,-0.999022,-0.024510,-0.018797,0.006484,12.024962,-7.896276,-22.612778,,,,,,,
1508530896.030284,-0.032527,0.034100,2.650370,0.002308,-0.059277,-0.017556,-0.032503,-0.034093,-0.998890,-0.038206,-0.008921,0.005009,11.964893,-7.903969,-22.641937,,,,,,,
1508530896.050295,-0.036092,0.034565,2.650519,0.023582,-0.131419,0.015572,-0.036062,-0.034559,-0.998752,-0.031977,-0.001239,0.026828,11.890254,-7.915263,-22.677282,,,,,,,
1508530896.070305,-0.039318,0.035198,2.650906,0.036359,-0.119754,0.012493,-0.039284,-0.035190,-0.998608,-0.025551,0.001758,0.027539,11.841005,-7.924594,-22.699781,,,,,,,
1508530896.090305,-0.042627,0.035033,2.651174,0.024624,-0.049646,0.013632,-0.042588,-0.035026,-0.998479,-0.041900,0.027046,0.005803,11.731462,-7.946063,-22.749100,,,,,,,
1508530896.110321,-0.042842,0.035250,2.651759,0.004329,0.004618,0.034801,-0.042803,-0.035242,-0.998462,-0.034376,0.034251,-0.010678,11.697644,-7.945689,-22.766640,,,,,,,
1508530896.130332,-0.043126,0.034876,2.652314,-0.031825,-0.035785,0.019565,-0.043086,-0.034869,-0.998463,-0.012944,0.033374,-0.016491,11.692651,-7.953549,-22.766459,,,,,,,
1508530896.150338,-0.044954,0.033813,2.652385,-0.028585,-0.064539,0.000406,-0.044913,-0.033807,-0.998419,-0.024164,0.014566,0.008520,11.663754,-7.938057,-22.786680,,,,,,,
1508530896.170347,-0.045971,0.033935,2.652805,0.029896,-0.036817,0.038175,-0.045928,-0.033929,-0.998368,-0.021897,0.010491,0.013887,11.628349,-7.926466,-22.808800,,,,,,,
1508530896.190336,-0.045775,0.034894,2.654170,0.067053,0.045099,0.076875,-0.045731,-0.034887,-0.998344,0.002121,0.007467,0.010292,11.609884,-7.950117,-22.809975,,,,,,,
1508530896.210366,-0.043528,0.035724,2.655489,0.019142,0.144878,0.046742,-0.043486,-0.035716,-0.998415,0.040434,-0.005559,-0.004194,11.638513,-8.004019,-22.776510,,,,,,,
1508530896.230375,-0.040288,0.035334,2.655688,-0.048873,0.073559,-0.006046,-0.040252,-0.035327,-0.998565,0.034072,-0.007459,0.015960,11.695707,-8.004393,-22.747061,,,,,,,
1508530896.250384,-0.039929,0.034779,2.655250,-0.006198,0.001217,-0.021598,-0.039894,-0.034772,-0.998599,0.023659,-0.008379,0.026858,11.733647,-7.990964,-22.732239,,,,,,,
1508530896.270391,-0.039908,0.036202,2.655128,0.057667,-0.043341,0.004449,-0.039871,-0.036194,-0.998549,0.020630,-0.023986,-0.006395,11.730348,-7.994035,-22.732862,,,,,,,
1508530896.290402,-0.041013,0.037061,2.655570,0.026753,-0.059170,0.029736,-0.040973,-0.037053,-0.998473,0.021061,-0.023494,-0.021714,11.725570,-8.028902,-22.723038,,,,,,,
1508530896.310410,-0.041887,0.036698,2.656416,-0.040385,-0.005953,0.048387,-0.041846,-0.036690,-0.998450,0.026542,-0.016014,-0.008660,11.693023,-8.044402,-22.734324,,,,,,,
1508530896.330419,-0.039176,0.035885,2.657206,-0.047880,0.136353,0.032462,-0.039141,-0.035877,-0.998589,0.043505,-0.005566,0.004846,11.725615,-8.037696,-22.719906,,,,,,,
1508530896.350403,-0.036193,0.035211,2.657151,-0.023296,0.139334,-0.022700,-0.036163,-0.035204,-0.998726,0.041610,-0.001203,0.001152,11.773469,-8.026491,-22.699108,,,,,,,
1508530896.370436,-0.032541,0.034974,2.656131,-0.017876,0.065921,-0.056783,-0.032515,-0.034967,-0.998859,0.025161,-0.001838,-0.006573,11.823195,-8.014299,-22.677561,,,,,,,
1508530896.390446,-0.030814,0.034573,2.654567,-0.041193,-0.034031,-0.088994,-0.030791,-0.034566,-0.998928,0.028075,-0.004786,-0.004719,11.922295,-7.996067,-22.632069,,,,,,,
1508530896.410455,-0.031182,0.034172,2.652110,-0.033564,-0.121342,-0.136777,-0.031159,-0.034165,-0.998930,0.012833,-0.003859,0.020979,11.958450,-7.941214,-22.632307,,,,,,,
1508530896.430464,-0.032965,0.033915,2.649011,-0.014378,-0.085309,-0.158951,-0.032940,-0.033909,-0.998882,0.014081,-0.001156,0.029171,11.958450,-7.941214,-22.632307,,,,,,,
1508530896.450475,-0.032643,0.033817,2.645542,-0.002675,0.007038,-0.180080,-0.032618,-0.033810,-0.998896,0.013545,0.001828,0.012552,11.946451,-7.875643,-22.661537,,,,,,,
1508530896.470482,-0.030950,0.033680,2.641690,-0.001581,0.013350,-0.199232,-0.030928,-0.033674,-0.998954,0.018629,-0.000475,0.001350,12.016504,-7.800617,-22.650444,,,,,,,
1508530896.490475,-0.032217,0.033469,2.637103,-0.022701,-0.165280,-0.248519,-0.032194,-0.033463,-0.998921,0.020444,-0.000686,0.006688,12.041894,-7.774836,-22.645824,,,,,,,
1508530896.510500,-0.035748,0.033627,2.631662,-0.005627,-0.142015,-0.276044,-0.035721,-0.033621,-0.998796,-0.005127,-0.006586,0.023378,12.006416,-7.672301,-22.699570,,,,,,,
1508530896.530509,-0.036918,0.033880,2.626555,-0.014282,-0.009078,-0.235555,-0.036888,-0.033874,-0.998745,-0.010582,-0.008302,0.011486,11.998471,-7.626270,-22.719273,,,,,,,
1508530896.550515,-0.036266,0.033549,2.622351,-0.044192,0.050565,-0.196361,-0.036238,-0.033543,-0.998780,-0.005830,-0.008632,-0.016967,12.023379,-7.571677,-22.724363,,,,,,,
1508530896.570527,-0.035379,0.032919,2.618736,-0.063383,0.017732,-0.170990,-0.035352,-0.032913,-0.998833,0.000486,-0.010316,-0.013664,12.084051,-7.489854,-22.719297,,,,,,,
1508530896.590534,-0.036051,0.032379,2.615281,-0.059070,-0.081070,-0.172094,-0.036024,-0.032374,-0.998826,0.004271,-0.011770,0.011491,12.101605,-7.431587,-22.729084,,,,,,,
1508530896.610544,-0.037521,0.031662,2.611715,-0.055873,-0.072584,-0.175255,-0.037494,-0.031657,-0.998795,0.004535,-0.011297,0.023988,12.097162,-7.403870,-22.740494,,,,,,,
1508530896.630527,-0.038484,0.030886,2.608498,-0.074043,-0.029981,-0.146625,-0.038457,-0.030881,-0.998783,-0.005245,-0.006518,0.022556,12.091731,-7.313503,-22.772602,,,,,,,
1508530896.650537,-0.038138,0.029487,2.606154,-0.095499,0.089215,-0.088151,-0.038113,-0.029483,-0.998838,-0.006519,-0.006009,0.027342,12.099624,-7.254807,-22.787180,,,,,,,
1508530896.670572,-0.033204,0.027179,2.605463,-0.134106,0.334942,0.000090,-0.033185,-0.027175,-0.999080,-0.008410,-0.003678,0.004634,12.158915,-7.208266,-22.770384,,,,,,,
1508530896.690581,-0.028000,0.024916,2.605056,-0.079628,0.169001,-0.053887,-0.027988,-0.024914,-0.999298,-0.001965,0.002910,-0.023270,12.328795,-7.136662,-22.701487,,,,,,,
1508530896.710563,-0.028576,0.024081,2.602763,-0.031436,-0.108573,-0.133555,-0.028564,-0.024079,-0.999302,-0.009858,0.002945,-0.009899,12.359004,-7.085694,-22.701027,,,,,,,
1508530896.730597,-0.032000,0.023457,2.600744,-0.026211,-0.140221,-0.068586,-0.031986,-0.023455,-0.999213,-0.023755,0.005648,0.002265,12.340383,-7.062557,-22.718361,,,,,,,
1508530896.750607,-0.035142,0.022788,2.600506,-0.040222,-0.102734,0.017571,-0.035126,-0.022786,-0.999123,-0.031937,-0.001414,0.009072,12.247993,-7.018087,-22.782049,,,,,,,
1508530896.770617,-0.038748,0.022065,2.601322,-0.018957,-0.126041,0.041154,-0.038729,-0.022063,-0.999006,-0.024794,0.000808,0.003004,12.174107,-7.010935,-22.823818,,,,,,,
1508530896.790621,-0.042222,0.022187,2.602270,0.002321,-0.137695,0.054098,-0.042199,-0.022185,-0.998863,-0.024589,-0.005403,0.001808,12.111621,-7.011933,-22.856730,,,,,,,
1508530896.810612,-0.045658,0.022322,2.603595,-0.027541,-0.121660,0.079417,-0.045630,-0.022321,-0.998709,-0.014917,-0.006946,-0.001169,11.981226,-7.039933,-22.916767,,,,,,,
1508530896.830643,-0.048582,0.021909,2.605159,-0.057349,-0.096182,0.070673,-0.048551,-0.021908,-0.998580,-0.012179,-0.015538,0.005691,11.898705,-7.050653,-22.956434,,,,,,,
1508530896.850645,-0.050694,0.021286,2.606248,-0.021140,-0.069685,0.059280,-0.050661,-0.021285,-0.998489,-0.013731,-0.007951,0.012176,11.865085,-7.054017,-22.972795,,,,,,,
1508530896.870639,-0.051764,0.021229,2.607693,0.006570,0.031248,0.078952,-0.051729,-0.021228,-0.998436,-0.007841,0.000598,0.004859,11.791639,-7.068867,-23.006021,,,,,,,
1508530896.890670,-0.050607,0.021377,2.609449,0.012927,0.064207,0.087547,-0.050574,-0.021375,-0.998492,-0.001459,0.001524,-0.004270,11.799086,-7.093478,-22.994627,,,,,,,
1508530896.910680,-0.049190,0.021492,2.610955,0.003392,0.043955,0.066158,-0.049159,-0.021490,-0.998560,0.015208,0.000555,-0.008871,11.819990,-7.112480,-22.978014,,,,,,,
1508530896.930689,-0.048390,0.021132,2.611947,-0.014612,-0.060228,0.040376,-0.048360,-0.021130,-0.998606,0.024099,0.003384,0.002162,11.832535,-7.128302,-22.966652,,,,,,,
1508530896.950696,-0.049150,0.020866,2.612434,-0.006064,-0.053923,0.021286,-0.049120,-0.020864,-0.998575,0.008134,-0.001581,0.014124,11.819779,-7.125796,-22.973997,,,,,,,
1508530896.970706,-0.049774,0.021033,2.612969,0.012015,-0.034783,0.028903,-0.049742,-0.021032,-0.998541,0.010161,-0.003215,0.012319,11.810600,-7.128503,-22.977877,,,,,,,
1508530896.990715,-0.049068,0.021913,2.613511,0.010909,0.071435,0.023650,-0.049037,-0.021911,-0.998557,0.005137,-0.017014,0.010672,11.801705,-7.152637,-22.974947,,,,,,,
1508530897.010711,-0.045890,0.022857,2.614034,0.007672,0.141576,0.030065,-0.045862,-0.022855,-0.998686,0.012812,-0.016070,-0.003206,11.843498,-7.179018,-22.945192,,,,,,,
1508530897.030733,-0.042988,0.023492,2.614600,0.001333,0.062956,0.025693,-0.042962,-0.023490,-0.998801,0.020898,-0.012673,-0.006510,11.917569,-7.203986,-22.898972,,,,,,,
1508530897.050741,-0.041752,0.023657,2.614822,-0.010311,0.001280,0.005320,-0.041728,-0.023655,-0.998849,0.017238,-0.003231,0.002206,11.962474,-7.219903,-22.870523,,,,,,,
1508530897.070735,-0.042247,0.023395,2.614773,-0.012380,-0.075250,-0.007532,-0.042223,-0.023393,-0.998834,0.017153,-0.001205,0.003824,11.968747,-7.215952,-22.868488,,,,,,,
1508530897.090760,-0.043755,0.023503,2.614377,0.007893,-0.089140,-0.027606,-0.043729,-0.023501,-0.998767,0.015897,-0.004056,0.006656,11.950643,-7.212330,-22.879097,,,,,,,
1508530897.110769,-0.044490,0.024064,2.613817,0.016365,0.000097,-0.026404,-0.044463,-0.024062,-0.998721,-0.000200,-0.004594,0.001895,11.923260,-7.213366,-22.893055,,,,,,,
1508530897.130778,-0.043617,0.024360,2.613593,-0.005015,0.087303,-0.002025,-0.043591,-0.024358,-0.998752,-0.003941,0.000127,0.000797,11.928971,-7.221157,-22.887621,,,,,,,
1508530897.150788,-0.042399,0.024207,2.613660,-0.004992,0.022520,0.003250,-0.042374,-0.024205,-0.998809,0.005737,0.000828,0.004576,11.946412,-7.219733,-22.878973,,,,,,,
1508530897.170779,-0.042507,0.024017,2.613391,0.002555,-0.078491,-0.022318,-0.042482,-0.024014,-0.998809,0.009141,0.003842,0.001311,11.967742,-7.213059,-22.869928,,,,,,,
1508530897.190805,-0.043762,0.023877,2.612872,-0.015558,-0.049802,-0.023511,-0.043736,-0.023875,-0.998758,0.000569,0.001627,-0.004950,11.943405,-7.203492,-22.885660,,,,,,,
1508530897.210813,-0.044467,0.023380,2.612647,-0.031582,-0.016787,-0.002323,-0.044440,-0.023377,-0.998738,-0.004556,-0.000686,-0.007594,11.928374,-7.193680,-22.896584,,,,,,,
1508530897.230823,-0.044373,0.022866,2.612665,-0.027339,0.000224,0.001984,-0.044346,-0.022864,-0.998755,0.008046,-0.000055,0.005575,11.921374,-7.178082,-22.905123,,,,,,,
1508530897.250832,-0.044059,0.022319,2.612628,-0.014557,0.002329,-0.002168,-0.044034,-0.022317,-0.998781,0.007779,0.004495,0.018434,11.928740,-7.166382,-22.904951,,,,,,,
1508530897.270839,-0.043705,0.021991,2.612573,0.000342,0.011887,-0.000973,-0.043680,-0.021989,-0.998804,0.005976,0.009477,0.018732,11.933750,-7.160712,-22.904116,,,,,,,
1508530897.290849,-0.043465,0.021916,2.612590,0.011003,-0.025290,0.001216,-0.043441,-0.021914,-0.998816,0.008651,0.003863,0.010794,11.945194,-7.153431,-22.900425,,,,,,,
,,,,,,,,,,,,,,,,42.293302,-71.263266,59.027126,-1.000000,-1.000000,1508530897.286188,
1508530897.310859,-0.043927,0.022215,2.612715,0.016321,-0.047566,0.010826,-0.043902,-0.022213,-0.998789,0.009188,-0.001316,0.004465,11.936453,-7.157892,-22.903587,,,,,,,
1508530897.330867,-0.044508,0.022706,2.613078,0.025872,-0.024157,0.022634,-0.044481,-0.022704,-0.998752,0.010790,-0.003953,0.004764,11.929111,-7.163835,-22.905554,,,,,,,
1508530897.350877,-0.043593,0.023550,2.613555,0.024788,0.025769,0.020533,-0.043567,-0.023548,-0.998773,0.020389,-0.006527,-0.005713,11.924545,-7.194558,-22.898302,,,,,,,
1508530897.370879,-0.041908,0.023714,2.613640,-0.019908,0.066079,-0.004294,-0.041884,-0.023711,-0.998841,0.012191,-0.003114,-0.002914,11.955648,-7.208425,-22.877712,,,,,,,
1508530897.390896,-0.040535,0.023066,2.613335,-0.035833,0.041587,-0.023610,-0.040513,-0.023064,-0.998913,0.006486,-0.000282,-0.002125,11.984205,-7.203057,-22.864458,,,,,,,
1508530897.410904,-0.040472,0.022549,2.612358,-0.018695,-0.032914,-0.060791,-0.040450,-0.022547,-0.998927,0.000961,-0.000097,0.008128,12.018163,-7.169665,-22.857130,,,,,,,
1508530897.430906,-0.042213,0.022881,2.611129,-0.008033,-0.063723,-0.058596,-0.042189,-0.022879,-0.998848,-0.014100,-0.012338,0.007911,11.998057,-7.153522,-22.872744,,,,,,,
1508530897.450922,-0.043647,0.023160,2.610059,0.000462,-0.046702,-0.049995,-0.043621,-0.023158,-0.998780,-0.015507,-0.013661,0.005890,11.980352,-7.151327,-22.882708,,,,,,,
1508530897.470931,-0.045006,0.023939,2.609372,0.004653,0.007560,-0.024365,-0.044978,-0.023937,-0.998701,-0.025395,-0.015064,0.010466,11.946171,-7.152645,-22.900162,,,,,,,
1508530897.490940,-0.045366,0.024663,2.609278,-0.006057,0.049081,0.001132,-0.045336,-0.024660,-0.998667,-0.010007,-0.007902,0.002391,11.925166,-7.168100,-22.906275,,,,,,,
1508530897.510926,-0.044772,0.024642,2.609322,-0.001789,0.028897,0.002217,-0.044743,-0.024639,-0.998695,-0.006633,-0.003071,0.000831,11.930946,-7.170678,-22.902458,,,,,,,
1508530897.530946,-0.044353,0.024557,2.609490,-0.000741,0.024685,0.012870,-0.044325,-0.024555,-0.998715,-0.004945,0.002430,0.000424,11.947908,-7.172313,-22.893101,,,,,,,
1508530897.550967,-0.044354,0.024236,2.609757,0.003542,-0.023125,0.011804,-0.044327,-0.024234,-0.998723,0.002777,0.007495,0.002065,11.947501,-7.170777,-22.893795,,,,,,,
1508530897.570955,-0.044776,0.024177,2.609960,0.000354,-0.025259,0.008582,-0.044748,-0.024175,-0.998706,0.005319,0.003835,0.008578,11.942225,-7.169078,-22.897079,,,,,,,
1508530897.590986,-0.045472,0.024030,2.610027,0.004641,-0.056093,0.001141,-0.045443,-0.024028,-0.998678,0.002581,0.001719,0.001302,11.923580,-7.167206,-22.907381,,,,,,,
1508530897.610995,-0.046403,0.024210,2.610102,0.002484,-0.023138,0.007537,-0.046373,-0.024208,-0.998631,-0.002410,-0.001976,0.007435,11.900965,-7.170053,-22.918247,,,,,,,
1508530897.631002,-0.046332,0.024148,2.610547,-0.007162,0.021567,0.030915,-0.046301,-0.024146,-0.998636,-0.003915,-0.002710,0.008783,11.895167,-7.172415,-22.920517,,,,,,,
1508530897.651012,-0.045779,0.024311,2.611214,0.012005,0.019434,0.031072,-0.045749,-0.024308,-0.998657,0.010227,0.000291,0.010254,11.897154,-7.185395,-22.915421,,,,,,,
1508530897.671024,-0.044642,0.024493,2.611730,0.010938,0.049156,0.023632,-0.044614,-0.024490,-0.998704,0.009626,0.001099,0.005799,11.913087,-7.194143,-22.904396,,,,,,,
1508530897.691030,-0.043147,0.024457,2.612335,-0.006130,0.069395,0.036283,-0.043121,-0.024455,-0.998771,0.006454,0.000269,-0.003442,11.932264,-7.201523,-22.892090,,,,,,,
1508530897.711040,-0.041159,0.024237,2.613030,-0.012501,0.053449,0.030895,-0.041135,-0.024234,-0.998860,0.018949,-0.000393,-0.001186,11.982122,-7.209939,-22.863380,,,,,,,
1508530897.731049,-0.039451,0.023973,2.613387,0.000306,0.050200,0.013962,-0.039429,-0.023971,-0.998935,0.016434,0.003479,0.008594,12.015633,-7.209338,-22.845978,,,,,,,
1508530897.751056,-0.037714,0.023799,2.613656,-0.001838,0.067212,0.017151,-0.037694,-0.023797,-0.999006,0.007421,0.004494,0.010023,12.040367,-7.209979,-22.832748,,,,,,,
1508530897.771066,-0.036068,0.023464,2.614007,-0.005017,0.041713,0.014976,-0.036051,-0.023462,-0.999075,0.015466,0.004999,0.003698,12.094666,-7.207914,-22.804686,,,,,,,
1508530897.791068,-0.035246,0.023409,2.614127,-0.007119,0.027865,0.003236,-0.035229,-0.023407,-0.999105,0.012402,-0.001099,-0.000910,12.112467,-7.206435,-22.795704,,,,,,,
1508530897.811084,-0.034497,0.023403,2.614163,-0.010293,-0.006129,0.002119,-0.034481,-0.023400,-0.999131,0.010555,-0.002646,-0.005309,12.127752,-7.205439,-22.787891,,,,,,,
1508530897.831094,-0.034640,0.023331,2.614119,0.000375,-0.025277,-0.004196,-0.034623,-0.023329,-0.999128,0.008790,-0.000475,0.003324,12.143378,-7.206048,-22.779375,,,,,,,
1508530897.851103,-0.034413,0.023455,2.614025,0.003557,0.002341,-0.005214,-0.034396,-0.023453,-0.999133,0.006137,0.000610,0.006701,12.140961,-7.205907,-22.780708,,,,,,,
1508530897.871090,-0.034188,0.023405,2.613840,-0.002715,0.006527,-0.014659,-0.034172,-0.023403,-0.999142,0.004432,0.002742,0.006390,12.145031,-7.205909,-22.778538,,,,,,,
1508530897.891097,-0.034512,0.023234,2.613406,-0.011205,-0.016875,-0.024330,-0.034496,-0.023232,-0.999135,-0.007848,0.000542,0.008305,12.151427,-7.195744,-22.778341,,,,,,,
1508530897.911129,-0.035229,0.023121,2.612998,-0.005891,-0.026409,-0.015775,-0.035213,-0.023119,-0.999112,-0.009694,-0.002684,0.007978,12.142681,-7.187335,-22.785658,,,,,,,
1508530897.931138,-0.035874,0.023231,2.612870,0.004731,-0.019997,-0.002905,-0.035857,-0.023229,-0.999087,-0.009813,-0.004405,-0.000257,12.122728,-7.185614,-22.796822,,,,,,,
1508530897.951147,-0.036518,0.023482,2.612903,-0.005940,0.004467,0.004478,-0.036500,-0.023480,-0.999058,-0.011474,-0.005725,-0.000698,12.109428,-7.189276,-22.802734,,,,,,,
1508530897.971157,-0.036861,0.023469,2.613149,-0.015518,0.028939,0.018331,-0.036842,-0.023466,-0.999046,-0.017464,-0.004930,0.005714,12.100855,-7.192745,-22.806192,,,,,,,
1508530897.991166,-0.036213,0.023335,2.613902,-0.010274,0.073668,0.051415,-0.036195,-0.023333,-0.999072,-0.022231,-0.006895,0.009586,12.098026,-7.194481,-22.807144,,,,,,,
1508530898.011174,-0.035468,0.023520,2.615386,-0.010337,0.081224,0.086557,-0.035451,-0.023518,-0.999095,-0.015513,-0.010128,0.004084,12.112978,-7.215424,-22.792589,,,,,,,
1508530898.031158,-0.034357,0.023457,2.617339,-0.024196,0.070655,0.100277,-0.034341,-0.023455,-0.999135,-0.006385,-0.007642,-0.002315,12.116726,-7.238040,-22.783424,,,,,,,
1508530898.051192,-0.033696,0.023125,2.619302,-0.020988,0.056830,0.097099,-0.033680,-0.023123,-0.999165,-0.013073,-0.004206,0.000676,12.126805,-7.251914,-22.773647,,,,,,,
1508530898.071202,-0.032631,0.022944,2.621390,-0.005090,0.154601,0.111146,-0.032617,-0.022942,-0.999205,-0.029044,-0.003456,0.007460,12.136095,-7.281202,-22.759352,,,,,,,
1508530898.091187,-0.028927,0.022974,2.623959,0.009703,0.278984,0.140110,-0.028916,-0.022972,-0.999318,-0.037384,0.002480,0.011449,12.170748,-7.305123,-22.733164,,,,,,,
1508530898.111218,-0.022976,0.022870,2.627241,0.007473,0.370449,0.171039,-0.022968,-0.022868,-0.999475,-0.017819,0.002177,0.005334,12.232657,-7.332843,-22.690969,,,,,,,
1508530898.131228,-0.016498,0.022785,2.630399,0.008619,0.289630,0.147563,-0.016493,-0.022783,-0.999604,-0.001863,0.007402,0.005708,12.349027,-7.373040,-22.614786,,,,,,,
1508530898.151237,-0.009662,0.023414,2.632982,-0.008370,0.451020,0.121058,-0.009659,-0.023412,-0.999679,-0.012802,-0.009135,-0.004883,12.534019,-7.437699,-22.491503,,,,,,,
1508530898.171232,-0.001730,0.022925,2.635860,-0.006276,0.383166,0.160420,-0.001730,-0.022923,-0.999736,-0.019038,0.004948,-0.013372,12.534019,-7.437699,-22.491503,,,,,,,
1508530898.191257,0.004675,0.022450,2.639051,-0.010564,0.411875,0.167860,0.004674,-0.022448,-0.999737,-0.006459,0.018405,-0.015506,12.816261,-7.503082,-22.309994,,,,,,,
1508530898.211265,0.013101,0.023017,2.643106,0.055339,0.419490,0.229100,0.013097,-0.023015,-0.999649,-0.008885,0.001332,0.000580,12.974804,-7.547724,-22.203041,,,,,,,
1508530898.231255,0.019276,0.023683,2.648523,-0.011700,0.121228,0.291141,0.019269,-0.023681,-0.999534,-0.012754,0.000457,-0.008630,13.050179,-7.591444,-22.143881,,,,,,,
1508530898.251282,0.013625,0.022832,2.654193,-0.046507,-0.415352,0.256376,0.013621,-0.022830,-0.999647,0.035909,-0.001431,-0.000903,13.001237,-7.693704,-22.137377,,,,,,,
1508530898.271292,0.008415,0.023028,2.658438,0.005628,-0.138309,0.199520,0.008412,-0.023026,-0.999699,-0.012120,-0.015808,0.000173,12.822120,-7.749730,-22.222141,,,,,,,
1508530898.291301,0.007977,0.022925,2.663065,-0.026489,0.003207,0.258987,0.007975,-0.022923,-0.999705,-0.023935,-0.015575,-0.017857,12.783965,-7.777008,-22.234591,,,,,,,
1508530898.311310,0.007260,0.022010,2.668855,-0.099927,-0.010440,0.291502,0.007258,-0.022009,-0.999731,-0.016932,-0.024164,-0.014688,12.719159,-7.851194,-22.245684,,,,,,,
1508530898.331320,0.007092,0.019855,2.674489,-0.104168,0.002262,0.277635,0.007090,-0.019853,-0.999778,-0.024363,-0.020018,-0.013360,12.662495,-7.887701,-22.265085,,,,,,,
1508530898.351315,0.007364,0.018066,2.680194,-0.094618,0.037344,0.286258,0.007363,-0.018065,-0.999810,-0.025093,-0.017991,-0.016365,12.641105,-7.900841,-22.272581,,,,,,,
1508530898.371339,0.010626,0.016711,2.686297,-0.084163,0.298798,0.322743,0.010625,-0.016711,-0.999804,-0.032597,-0.001447,-0.030195,12.621445,-7.959309,-22.262911,,,,,,,
1508530898.391326,0.016924,0.014886,2.693019,-0.106534,0.272299,0.336380,0.016922,-0.014885,-0.999746,-0.037109,-0.006172,-0.022440,12.691221,-7.992294,-22.211367,,,,,,,
1508530898.411355,0.017424,0.012261,2.699387,-0.161669,-0.046519,0.295224,0.017421,-0.012261,-0.999773,-0.035930,0.003197,0.001482,12.739838,-8.020589,-22.173302,,,,,,,
1508530898.431365,0.014300,0.008462,2.704571,-0.194503,-0.193302,0.238411,0.014299,-0.008462,-0.999862,-0.032472,0.021600,0.013000,12.614626,-8.017467,-22.245899,,,,,,,
1508530898.451373,0.009926,0.005425,2.709567,-0.129508,-0.214504,0.260330,0.009926,-0.005425,-0.999936,-0.029884,0.025200,0.001889,12.516478,-8.002735,-22.306562,,,,,,,
1508530898.471381,0.006622,0.002273,2.715153,-0.099835,-0.029590,0.285204,0.006622,-0.002273,-0.999976,-0.034530,0.034424,-0.000620,12.366266,-7.988236,-22.395363,,,,,,,
1508530898.491393,0.009802,-0.000379,2.721000,-0.162827,0.270065,0.297688,0.009802,0.000379,-0.999952,-0.049979,0.024844,0.011381,12.335508,-8.012394,-22.403692,,,,,,,
1508530898.511400,0.016375,-0.004183,2.727483,-0.176806,0.418917,0.332822,0.016374,0.004182,-0.999857,-0.037080,0.002791,0.021754,12.415485,-8.004405,-22.362331,,,,,,,
1508530898.531395,0.026529,-0.006679,2.734529,-0.093924,0.630404,0.368803,0.026525,0.006679,-0.999626,-0.051840,0.017079,0.029991,12.415485,-8.004405,-22.362331,,,,,,,
1508530898.551271,0.041335,-0.007679,2.742791,-0.049375,0.755947,0.429956,0.041322,0.007679,-0.999116,0.013381,0.007946,-0.012404,12.812595,-8.088264,-22.106697,,,,,,,
1508530898.571303,0.050634,-0.008791,2.751144,-0.098023,0.251210,0.385518,0.050611,0.008791,-0.998680,0.022204,-0.002855,-0.009835,13.002421,-8.170583,-21.965137,,,,,,,
1508530898.591305,0.051263,-0.011145,2.757683,-0.142432,-0.036992,0.290171,0.051237,0.011145,-0.998624,0.016070,0.006723,0.022581,13.004206,-8.201806,-21.952442,,,,,,,
1508530898.611323,0.050181,-0.013124,2.763656,-0.095520,-0.076252,0.311925,0.050156,0.013124,-0.998655,-0.023209,0.042128,-0.000811,12.921701,-8.225386,-21.992302,,,,,,,
1508530898.631331,0.048432,-0.014464,2.770778,-0.078584,-0.088795,0.372746,0.048408,0.014463,-0.998723,-0.041160,0.011400,-0.004375,12.826811,-8.273158,-22.029898,,,,,,,
1508530898.651332,0.047615,-0.015634,2.778670,-0.077612,-0.001587,0.400503,0.047592,0.015634,-0.998745,-0.045425,-0.011590,-0.004734,12.776840,-8.304163,-22.047264,,,,,,,
1508530898.671349,0.049482,-0.017423,2.787305,-0.136324,0.116548,0.453345,0.049454,0.017422,-0.998624,-0.042343,0.007312,0.018568,12.688484,-8.400123,-22.061935,,,,,,,
1508530898.691332,0.051617,-0.019949,2.797596,-0.140716,0.076488,0.540588,0.051584,0.019947,-0.998469,-0.044626,0.012127,0.031474,12.653900,-8.456553,-22.060238,,,,,,,
1508530898.711367,0.052493,-0.021366,2.809692,-0.036552,0.090585,0.639415,0.052457,0.021364,-0.998395,-0.048001,0.025724,0.039776,12.622613,-8.497753,-22.062332,,,,,,,
1508530898.731377,0.055304,-0.020776,2.822956,-0.000418,0.126784,0.667424,0.055264,0.020775,-0.998256,-0.038312,0.053597,0.020610,12.506893,-8.703043,-22.048204,,,,,,,
1508530898.751374,0.057515,-0.021261,2.836110,-0.037676,0.117229,0.663915,0.057470,0.021259,-0.998121,-0.032507,0.058163,0.022031,12.435396,-8.843818,-22.032623,,,,,,,
1508530898.771395,0.060196,-0.022007,2.850311,-0.100609,0.110059,0.730469,0.060145,0.022005,-0.997947,-0.030848,0.057279,0.035468,12.402084,-8.917168,-22.021832,,,,,,,
1508530898.791404,0.061766,-0.022940,2.865154,-0.071824,0.042048,0.728526,0.061711,0.022938,-0.997830,-0.063710,0.041042,0.034696,12.266452,-9.125297,-22.012537,,,,,,,
1508530898.811413,0.061669,-0.022627,2.880247,0.018525,0.121897,0.794282,0.061614,0.022625,-0.997844,-0.099624,0.015110,0.004176,12.112150,-9.281726,-22.032568,,,,,,,
1508530898.831422,0.066546,-0.020475,2.897885,0.065024,0.288131,0.947049,0.066483,0.020473,-0.997577,-0.118042,0.009190,-0.001995,12.067587,-9.385686,-22.012972,,,,,,,
1508530898.851433,0.074522,-0.017596,2.918531,0.072183,0.417129,1.078170,0.074442,0.017595,-0.997070,-0.089487,0.024046,0.028732,12.008459,-9.635350,-21.937311,,,,,,,
1508530898.871440,0.083490,-0.013942,2.940256,0.113768,0.440506,1.103115,0.083385,0.013942,-0.996420,-0.052394,0.021794,0.027349,11.960559,-10.074945,-21.765320,,,,,,,
1508530898.891445,0.092839,-0.009374,2.961928,0.142503,0.477663,1.100186,0.092701,0.009374,-0.995650,-0.063816,0.014903,0.006407,11.944557,-10.232092,-21.700703,,,,,,,
1508530898.911439,0.103484,-0.004466,2.983959,0.116842,0.552181,1.140491,0.103298,0.004466,-0.994640,-0.053051,-0.021693,0.008679,11.914766,-10.717175,-21.481834,,,,,,,
1508530898.931467,0.115023,0.000077,3.006527,0.108298,0.576645,1.147892,0.114770,-0.000077,-0.993392,-0.027444,-0.024551,0.011321,11.907763,-10.956924,-21.364449,,,,,,,
1508530898.951473,0.126806,0.005779,3.028799,0.176439,0.621188,1.136776,0.126464,-0.005779,-0.991954,-0.020065,-0.013234,0.013683,11.901438,-11.196832,-21.243244,,,,,,,
1508530898.971485,0.140440,0.012885,3.051519,0.209295,0.732908,1.191434,0.139967,-0.012884,-0.990072,0.002321,-0.030191,0.033987,11.909868,-11.720887,-20.953865,,,,,,,
1508530898.991495,0.154455,0.020685,3.075147,0.209235,0.666167,1.244620,0.153808,-0.020684,-0.987884,0.029816,-0.043449,0.012664,11.928374,-12.098339,-20.727585,,,,,,,
1508530899.011482,0.163777,0.028474,3.099377,0.181679,0.402733,1.247388,0.162980,-0.028470,-0.986219,0.041748,-0.047672,0.011686,11.906408,-12.289937,-20.627253,,,,,,,
1508530899.031508,0.168987,0.035923,3.121855,0.189438,0.264153,1.112124,0.168076,-0.035915,-0.985120,0.101593,-0.079853,0.023007,11.682390,-12.836313,-20.421543,,,,,,,
1508530899.051512,0.173764,0.043608,3.141072,0.229110,0.283744,0.948496,0.172727,-0.043594,-0.984005,0.124530,-0.059235,0.013134,11.556015,-13.084343,-20.335857,,,,,,,
1508530899.071530,0.178454,0.050967,-3.125612,0.202667,0.265366,0.853502,0.177278,-0.050945,-0.982841,0.121047,-0.036320,0.014030,11.422947,-13.390562,-20.211329,,,,,,,
1508530899.091524,0.183197,0.057956,-3.109220,0.202617,0.304732,0.870567,0.181868,-0.057923,-0.981615,0.164965,-0.026198,0.042315,11.267178,-13.735832,-20.066547,,,,,,,
1508530899.111536,0.187868,0.065251,-3.094234,0.223113,0.211859,0.745026,0.186368,-0.065204,-0.980314,0.202243,-0.027783,0.020002,11.184406,-13.942669,-19.969971,,,,,,,
1508530899.131557,0.187395,0.071732,-3.081588,0.189371,-0.022262,0.623190,0.185822,-0.071670,-0.979966,0.217773,-0.053269,0.003358,11.037316,-14.193339,-19.874996,,,,,,,
1508530899.151567,0.189332,0.076832,-3.072932,0.158801,0.238212,0.372919,0.187648,-0.076756,-0.979233,0.228902,-0.083660,0.015854,10.859392,-14.436647,-19.797611,,,,,,,
1508530899.171568,0.194919,0.080062,-3.069148,0.099614,0.256469,0.116906,0.193066,-0.079976,-0.977921,0.254047,-0.076259,0.027008,10.856005,-14.472616,-19.773195,,,,,,,
1508530899.191585,0.195930,0.081329,-3.070306,0.069334,-0.053538,-0.135923,0.194035,-0.081240,-0.977625,0.232173,-0.064665,0.065058,10.922715,-14.579064,-19.657923,,,,,,,
1508530899.211580,0.195616,0.082327,-3.076124,0.123988,-0.000146,-0.352639,0.193713,-0.082234,-0.977606,0.159360,-0.060588,0.067983,10.947704,-14.584459,-19.640011,,,,,,,
1508530899.231604,0.196950,0.082414,-3.085260,0.057129,0.028105,-0.486263,0.195015,-0.082320,-0.977339,0.169364,-0.085877,0.027022,11.107784,-14.527430,-19.592335,,,,,,,
1508530899.251599,0.197237,0.080091,-3.095421,-0.049190,-0.071910,-0.546842,0.195333,-0.080005,-0.977468,0.172236,-0.091458,0.013647,11.183208,-14.480490,-19.584175,,,,,,,
1508530899.271613,0.195725,0.076443,-3.107171,-0.060719,-0.129579,-0.635354,0.193909,-0.076368,-0.978042,0.197158,-0.086184,0.012665,11.379608,-14.262079,-19.631258,,,,,,,
1508530899.291632,0.194108,0.073103,-3.120583,-0.023258,-0.146968,-0.741532,0.192376,-0.073038,-0.978599,0.178199,-0.061316,0.012352,11.480534,-14.136656,-19.663189,,,,,,,
1508530899.311638,0.190128,0.069485,-3.136729,-0.031448,-0.337588,-0.874837,0.188528,-0.069429,-0.979611,0.144495,-0.017668,-0.033970,11.625994,-13.952415,-19.709263,,,,,,,
1508530899.331649,0.182129,0.063895,3.127603,-0.157761,-0.532516,-1.043192,0.180755,-0.063851,-0.981453,0.146943,-0.034110,-0.021110,11.750392,-13.655421,-19.843044,,,,,,,
1508530899.351634,0.170928,0.055028,3.105212,-0.266988,-0.682981,-1.252897,0.169839,-0.055000,-0.983936,0.087271,-0.052116,0.016834,11.768535,-13.578383,-19.885113,,,,,,,
1508530899.371668,0.156892,0.045886,3.080532,-0.230674,-0.796781,-1.284626,0.156084,-0.045870,-0.986678,-0.006121,-0.068892,0.048140,11.853372,-12.998796,-20.219236,,,,,,,
1508530899.391676,0.143076,0.038221,3.057232,-0.188372,-0.684794,-1.152164,0.142484,-0.038212,-0.989059,-0.040097,-0.058239,0.053970,11.860719,-12.514652,-20.518175,,,,,,,
1508530899.411681,0.132161,0.032693,3.036192,-0.088556,-0.516626,-1.045803,0.131707,-0.032687,-0.990750,-0.005623,-0.026700,0.036526,11.876266,-12.188407,-20.704725,,,,,,,
1508530899.431695,0.123853,0.029131,3.015960,-0.043919,-0.424154,-1.025134,0.123484,-0.029127,-0.991919,0.031164,-0.015139,0.020834,11.898934,-12.049092,-20.773142,,,,,,,
1508530899.451704,0.115552,0.025195,2.994539,-0.078842,-0.467014,-1.135124,0.115258,-0.025193,-0.993016,0.068931,-0.016555,0.008473,11.998001,-11.640703,-20.948284,,,,,,,
1508530899.471713,0.105561,0.020936,2.970954,-0.075461,-0.570330,-1.211836,0.105342,-0.020935,-0.994216,0.028248,-0.019409,0.029174,12.057556,-11.323158,-21.087677,,,,,,,
1508530899.491722,0.093266,0.017587,2.946521,-0.022148,-0.649044,-1.232750,0.093117,-0.017586,-0.995500,-0.004555,-0.017067,0.044908,12.070076,-11.160983,-21.166822,,,,,,,
1508530899.511731,0.083394,0.015634,2.923417,0.008386,-0.410648,-1.104548,0.083287,-0.015633,-0.996403,-0.060536,0.020776,0.056675,12.084144,-10.713197,-21.389006,,,,,,,
1508530899.531740,0.077967,0.013808,2.902437,-0.013111,-0.241491,-1.037519,0.077880,-0.013808,-0.996867,0.016678,0.086775,0.016261,12.169514,-10.453335,-21.469032,,,,,,,
1508530899.551724,0.072700,0.012519,2.881004,0.040292,-0.328875,-1.107417,0.072630,-0.012518,-0.997280,0.029710,0.091177,0.009899,12.169514,-10.453335,-21.469032,,,,,,,
1508530899.571748,0.063453,0.012274,2.857894,0.069266,-0.578739,-1.164863,0.063406,-0.012273,-0.997912,-0.012624,0.092092,-0.012265,12.314690,-10.069128,-21.569647,,,,,,,
1508530899.591768,0.048886,0.011665,2.834653,0.010810,-0.823009,-1.154883,0.048863,-0.011665,-0.998737,-0.053090,0.086891,0.038776,12.261148,-9.676876,-21.778683,,,,,,,
1508530899.611747,0.030553,0.011276,2.811791,0.066223,-0.988690,-1.134321,0.030546,-0.011276,-0.999470,-0.052885,0.089554,0.072590,12.187225,-9.537313,-21.881496,,,,,,,
1508530899.631776,0.011070,0.015131,2.789665,0.303515,-0.914232,-1.071615,0.011069,-0.015130,-0.999824,-0.101202,0.091348,0.112724,11.854158,-9.203908,-22.204857,,,,,,,
1508530899.651795,-0.001831,0.022648,2.769577,0.394695,-0.547366,-0.954528,-0.001831,-0.022646,-0.999742,-0.098129,0.076663,-0.022078,11.706667,-9.120133,-22.317389,,,,,,,
1508530899.671803,-0.011991,0.029868,2.751526,0.328568,-0.550288,-0.889062,-0.011985,-0.029863,-0.999482,-0.110680,0.054247,-0.048705,11.655947,-9.084441,-22.358454,,,,,,,
1508530899.691813,-0.022352,0.036612,2.734225,0.344477,-0.535315,-0.858042,-0.022335,-0.036603,-0.999080,-0.104145,0.039762,0.047679,11.548989,-9.010129,-22.443865,,,,,,,
1508530899.711808,-0.033226,0.046137,2.717485,0.524440,-0.623538,-0.844911,-0.033185,-0.046121,-0.998385,-0.098209,0.024178,0.081362,11.480699,-8.992239,-22.486036,,,,,,,
1508530899.731831,-0.046136,0.058950,2.701713,0.646815,-0.704116,-0.781142,-0.046040,-0.058915,-0.997201,-0.099544,-0.014250,0.115014,11.344283,-9.044655,-22.534199,,,,,,,
1508530899.751841,-0.058086,0.073190,2.688515,0.680573,-0.566603,-0.641277,-0.057898,-0.073125,-0.995641,-0.118890,-0.031398,0.078191,11.130384,-9.207192,-22.575005,,,,,,,
1508530899.771849,-0.065760,0.087404,2.678601,0.680176,-0.364167,-0.471833,-0.065462,-0.087293,-0.994030,-0.146635,-0.047518,0.026134,11.024176,-9.385208,-22.553806,,,,,,,
1508530899.791858,-0.070944,0.101069,2.671779,0.630879,-0.218110,-0.331583,-0.070523,-0.100897,-0.992394,-0.160037,-0.049295,0.008843,10.987582,-9.488207,-22.528551,,,,,,,
1508530899.811868,-0.072588,0.113678,2.667747,0.622042,-0.075256,-0.189937,-0.072056,-0.113433,-0.990929,-0.218013,-0.093842,-0.048362,10.948084,-9.810457,-22.409441,,,,,,,
1508530899.831877,-0.073289,0.126219,2.666695,0.610048,-0.003582,-0.049436,-0.072641,-0.125884,-0.989382,-0.216208,-0.093156,-0.057218,10.947996,-10.060585,-22.298311,,,,,,,
1508530899.851885,-0.070806,0.137365,2.668229,0.524501,0.247657,0.088465,-0.070080,-0.136934,-0.988098,-0.220218,-0.079451,-0.052979,10.955212,-10.191142,-22.235392,,,,,,,
1508530899.871897,-0.061583,0.146294,2.672534,0.428311,0.633823,0.240299,-0.060886,-0.145773,-0.987443,-0.164349,-0.050074,-0.007827,11.033715,-10.444695,-22.078365,,,,,,,
1508530899.891904,-0.046770,0.154094,2.679199,0.400351,0.855134,0.334998,-0.046199,-0.153485,-0.987071,-0.043217,-0.025532,-0.036718,11.384018,-10.810492,-21.721560,,,,,,,
1508530899.911888,-0.031116,0.161496,2.686879,0.363040,0.801120,0.376174,-0.030706,-0.160795,-0.986510,-0.023356,-0.007723,-0.056916,11.533310,-10.936283,-21.579367,,,,,,,
1508530899.931908,-0.019293,0.167014,2.694789,0.223661,0.562202,0.385490,-0.019023,-0.166238,-0.985902,0.002513,-0.002509,-0.082808,11.896229,-11.288595,-21.197546,,,,,,,
1508530899.951933,-0.011715,0.168880,2.702983,0.028837,0.388207,0.421016,-0.011548,-0.168078,-0.985706,-0.005801,-0.000913,-0.091900,11.992437,-11.413318,-21.076202,,,,,,,
1508530899.971920,-0.006556,0.167626,2.712383,-0.104332,0.316262,0.484812,-0.006464,-0.166842,-0.985963,-0.014898,-0.018202,-0.111160,12.043358,-11.499182,-21.000359,,,,,,,
1508530899.991945,-0.002408,0.164005,2.722865,-0.226856,0.291015,0.537019,-0.002376,-0.163271,-0.986578,-0.039570,-0.039304,-0.131891,12.069110,-11.602385,-20.928686,,,,,,,
1508530900.011960,0.001540,0.157671,2.734376,-0.367490,0.297631,0.584841,0.001521,-0.157019,-0.987594,-0.041926,-0.049784,-0.075470,12.060443,-11.618893,-20.924526,,,,,,,
1508530900.031948,0.006136,0.149053,2.746256,-0.457986,0.322073,0.573465,0.006068,-0.148501,-0.988894,-0.032679,-0.060559,-0.035398,12.056277,-11.609478,-20.932148,,,,,,,
1508530900.051977,0.012124,0.140107,2.757798,-0.442096,0.454887,0.582215,0.012005,-0.139649,-0.990128,-0.057033,-0.016662,0.036164,12.071336,-11.533869,-20.965242,,,,,,,
1508530900.071967,0.022537,0.131808,2.771468,-0.425433,0.695469,0.726275,0.022340,-0.131427,-0.991074,-0.060395,-0.004682,-0.029205,12.128827,-11.509250,-20.945580,,,,,,,
1508530900.091995,0.036000,0.122444,2.787848,-0.549163,0.791488,0.824347,0.035723,-0.122138,-0.991870,-0.052263,0.000953,-0.060284,12.221587,-11.507191,-20.892727,,,,,,,
1508530900.112004,0.048446,0.110949,2.805263,-0.624715,0.671516,0.833216,0.048130,-0.110722,-0.992685,-0.039829,0.004246,-0.077841,12.415190,-11.464000,-20.802126,,,,,,,
1508530900.132000,0.058065,0.100064,2.822774,-0.543753,0.512200,0.855058,0.057742,-0.099898,-0.993321,-0.058963,-0.000841,-0.009395,12.479025,-11.418139,-20.789148,,,,,,,
1508530900.152023,0.064266,0.092621,2.841760,-0.363959,0.356395,0.984194,0.063946,-0.092489,-0.993658,-0.080777,-0.009348,0.026816,12.481720,-11.417538,-20.787861,,,,,,,
1508530900.172032,0.071353,0.087754,2.864288,-0.306821,0.537497,1.137061,0.071018,-0.087641,-0.993617,0.027019,0.009150,0.084499,12.384686,-11.568607,-20.762358,,,,,,,
1508530900.192041,0.080190,0.083160,2.886182,-0.319348,0.486064,1.009149,0.079827,-0.083065,-0.993342,0.140495,0.031200,0.011256,12.355358,-11.713346,-20.698582,,,,,,,
1508530900.212051,0.087202,0.078796,2.905063,-0.276500,0.418664,0.880618,0.086821,-0.078714,-0.993109,0.127793,0.033121,-0.008066,12.336259,-11.769738,-20.677975,,,,,,,
1508530900.232061,0.093595,0.074960,2.922851,-0.271104,0.315575,0.868873,0.093196,-0.074890,-0.992827,-0.013850,-0.008759,0.023665,12.298759,-11.872350,-20.641621,,,,,,,
1508530900.252068,0.095663,0.071244,2.941453,-0.271104,0.140465,0.918783,0.095275,-0.071184,-0.992903,0.033021,-0.026259,0.077131,12.154252,-12.028259,-20.636953,,,,,,,
1508530900.272060,0.096241,0.068678,2.959392,-0.164437,0.040265,0.837603,0.095866,-0.068624,-0.993026,0.067510,-0.022212,0.059661,12.072227,-12.084817,-20.652050,,,,,,,
1508530900.292081,0.094481,0.068260,2.974677,-0.071536,-0.066447,0.714778,0.094121,-0.068207,-0.993222,0.069728,-0.000305,-0.006092,11.789023,-12.285049,-20.697468,,,,,,,
1508530900.312096,0.092086,0.067687,2.988031,-0.105461,-0.080519,0.634632,0.091745,-0.067635,-0.993483,0.035452,-0.011162,-0.002840,11.591572,-12.410157,-20.734324,,,,,,,
1508530900.332089,0.089053,0.066084,3.000612,-0.151202,-0.116664,0.620385,0.088741,-0.066036,-0.993863,0.010044,-0.024419,0.014600,11.495386,-12.459380,-20.758339,,,,,,,
1508530900.352113,0.086950,0.064453,3.014338,-0.130125,-0.001621,0.712214,0.086660,-0.064408,-0.994154,0.038081,-0.011581,0.084898,11.194273,-12.587296,-20.845549,,,,,,,
1508530900.372123,0.088812,0.063624,3.028489,-0.076875,0.184048,0.652104,0.088516,-0.063581,-0.994043,0.109955,-0.002398,0.070566,11.051882,-12.697662,-20.854589,,,,,,,
1508530900.392132,0.093920,0.063969,3.039014,0.009717,0.090983,0.478130,0.093590,-0.063926,-0.993556,0.114646,0.012763,0.055873,11.008774,-12.753171,-20.843515,,,,,,,
1508530900.412142,0.093963,0.065137,3.047563,0.009859,0.007920,0.420572,0.093626,-0.065091,-0.993477,0.046968,0.018323,0.016625,10.943818,-12.906374,-20.783335,,,,,,,
1508530900.432128,0.094567,0.064790,3.056093,0.005589,-0.066350,0.444970,0.094228,-0.064744,-0.993443,0.017863,0.014818,0.025288,10.867882,-12.973623,-20.781313,,,,,,,
1508530900.452159,0.091964,0.066381,3.065885,0.050190,-0.088424,0.518788,0.091632,-0.066332,-0.993581,0.035351,0.024630,0.043630,10.792173,-13.025088,-20.788572,,,,,,,
1508530900.472170,0.091733,0.068088,3.075136,0.038623,0.067298,0.391041,0.091392,-0.068036,-0.993488,0.177071,0.024884,0.077823,10.566132,-13.210730,-20.787548,,,,,,,
1508530900.492178,0.091235,0.069524,3.079460,0.059374,-0.049431,0.127068,0.090888,-0.069468,-0.993435,0.176721,0.035869,0.043698,10.497941,-13.290635,-20.771156,,,,,,,
1508530900.512172,0.090579,0.070664,3.080075,0.047862,-0.010558,0.001362,0.090229,-0.070605,-0.993415,0.134151,0.030902,0.036857,10.473750,-13.313853,-20.768497,,,,,,,
1508530900.532197,0.090249,0.071432,3.079640,0.036207,-0.040383,-0.023245,0.089896,-0.071371,-0.993391,0.080849,0.009359,0.009168,10.462092,-13.343718,-20.755203,,,,,,,
1508530900.552205,0.088496,0.071841,3.078945,0.013937,-0.116960,-0.052235,0.088153,-0.071780,-0.993517,0.149961,-0.001859,0.050646,10.439433,-13.350454,-20.762280,,,,,,,
1508530900.572216,0.085607,0.071752,3.075755,0.013216,-0.170710,-0.233288,0.085283,-0.071691,-0.993774,0.163741,0.008290,0.056518,10.439433,-13.350454,-20.762280,,,,,,,
1508530900.592226,0.083497,0.071680,3.068919,0.029434,-0.100108,-0.394942,0.083186,-0.071618,-0.993957,0.134480,0.008340,0.013992,10.410312,-13.307331,-20.804543,,,,,,,
1508530900.612233,0.082074,0.070929,3.059463,-0.025706,-0.122818,-0.517860,0.081775,-0.070870,-0.994128,0.103772,0.003243,-0.013898,10.504600,-13.190926,-20.831263,,,,,,,
1508530900.632228,0.080378,0.068178,3.048012,-0.132027,-0.095476,-0.613479,0.080105,-0.068125,-0.994456,0.094944,0.001261,-0.001135,10.547709,-13.127072,-20.849808,,,,,,,
1508530900.652254,0.082071,0.063054,3.034595,-0.240495,0.107012,-0.749444,0.081816,-0.063012,-0.994654,0.178454,-0.025748,0.035181,10.760900,-12.834346,-20.922983,,,,,,,
1508530900.672261,0.083602,0.056241,3.016818,-0.289941,-0.176449,-1.009864,0.083372,-0.056212,-0.994932,0.184175,-0.034959,0.008985,11.015514,-12.543728,-20.966686,,,,,,,
1508530900.692256,0.077976,0.048716,2.994652,-0.272506,-0.382081,-1.179170,0.077805,-0.048697,-0.995779,0.098694,-0.028604,-0.009989,11.098401,-12.367472,-21.027596,,,,,,,
1508530900.712279,0.072747,0.042634,2.972233,-0.182235,-0.243698,-1.085688,0.072617,-0.042621,-0.996449,-0.030457,-0.020093,-0.003368,11.296166,-11.816111,-21.238287,,,,,,,
1508530900.732268,0.071496,0.038794,2.952889,-0.095314,-0.026470,-0.926159,0.071381,-0.038785,-0.996695,-0.014038,-0.020114,0.003897,11.419457,-11.589562,-21.297106,,,,,,,
1508530900.752297,0.071402,0.035740,2.934487,-0.099485,-0.082890,-0.960308,0.071296,-0.035732,-0.996815,0.087365,-0.020695,-0.008266,11.568971,-11.398292,-21.319628,,,,,,,
1508530900.772307,0.067393,0.031194,2.913080,-0.181014,-0.325729,-1.151754,0.067309,-0.031189,-0.997245,0.129865,-0.015763,-0.020059,11.821478,-10.974581,-21.403269,,,,,,,
1508530900.792296,0.061399,0.025578,2.889733,-0.212945,-0.287528,-1.169024,0.061340,-0.025575,-0.997789,0.026688,-0.018004,0.012972,11.928820,-10.610045,-21.527166,,,,,,,
1508530900.812300,0.058081,0.020409,2.868162,-0.174903,-0.143699,-1.045091,0.058036,-0.020408,-0.998106,-0.000113,-0.027093,0.015715,11.992968,-10.426264,-21.581251,,,,,,,
1508530900.832334,0.056169,0.016665,2.848338,-0.103684,-0.120151,-0.983795,0.056131,-0.016664,-0.998284,0.034659,-0.023330,0.006463,12.218442,-9.942276,-21.682930,,,,,,,
1508530900.852343,0.052521,0.014028,2.828407,-0.065210,-0.262668,-1.025110,0.052492,-0.014027,-0.998523,0.079573,-0.018947,-0.010663,12.342512,-9.660857,-21.739801,,,,,,,
1508530900.872351,0.045681,0.011480,2.807028,-0.090513,-0.386136,-1.087105,0.045662,-0.011480,-0.998891,0.086174,-0.024119,-0.026744,12.379506,-9.518127,-21.781683,,,,,,,
1508530900.892361,0.037864,0.008297,2.785892,-0.117207,-0.409318,-1.037300,0.037853,-0.008297,-0.999249,-0.014996,-0.025456,-0.016712,12.427280,-9.054829,-21.951342,,,,,,,
1508530900.912371,0.029198,0.005692,2.766102,-0.083210,-0.473925,-0.976378,0.029193,-0.005692,-0.999558,0.005383,-0.034545,-0.000091,12.420240,-8.757792,-22.075493,,,,,,,
1508530900.932359,0.018398,0.003727,2.746390,-0.073518,-0.583458,-1.007258,0.018397,-0.003727,-0.999824,0.013158,-0.032131,0.006263,12.420240,-8.757792,-22.075493,,,,,,,
1508530900.952364,0.005292,0.001687,2.726058,-0.105393,-0.696071,-1.013995,0.005292,-0.001687,-0.999985,-0.031293,-0.048209,0.019516,12.312036,-8.339120,-22.297121,,,,,,,
1508530900.972398,-0.008145,-0.000816,2.706631,-0.130050,-0.638413,-0.934299,-0.008144,0.000816,-0.999967,-0.087788,-0.048301,0.041028,12.099344,-7.898679,-22.572226,,,,,,,
1508530900.992397,-0.019647,-0.002671,2.689487,-0.084551,-0.531740,-0.801814,-0.019646,0.002671,-0.999803,-0.100822,-0.048631,0.046343,12.099344,-7.898679,-22.572226,,,,,,,
1508530901.012418,-0.029276,-0.003054,2.675203,-0.007102,-0.455875,-0.664830,-0.029272,0.003054,-0.999567,-0.130884,-0.040407,0.025324,11.850802,-7.428551,-22.861841,,,,,,,
1508530901.032426,-0.037335,-0.002178,2.663459,0.032052,-0.360959,-0.553702,-0.037326,0.002178,-0.999301,-0.108487,-0.033398,0.010913,11.746683,-7.289741,-22.960047,,,,,,,
1508530901.052425,-0.043085,-0.001389,2.653031,0.006361,-0.242870,-0.509106,-0.043071,0.001389,-0.999071,-0.096104,-0.030930,-0.001707,11.706771,-7.232719,-22.998434,,,,,,,
1508530901.072419,-0.047061,-0.001273,2.643433,-0.031027,-0.181053,-0.457195,-0.047044,0.001273,-0.998892,-0.108794,0.000894,-0.036753,11.650113,-7.058275,-23.081253,,,,,,,
1508530901.092431,-0.050083,-0.002144,2.634947,-0.082274,-0.124500,-0.393690,-0.050062,0.002144,-0.998744,-0.079836,-0.001671,-0.015432,11.635308,-6.932676,-23.126745,,,,,,,
1508530901.112443,-0.051166,-0.003723,2.627266,-0.104729,-0.009682,-0.372494,-0.051143,0.003723,-0.998684,-0.088627,0.021958,-0.000461,11.636215,-6.868053,-23.145561,,,,,,,
1508530901.132469,-0.050097,-0.005477,2.620456,-0.108073,0.089319,-0.314951,-0.050075,0.005477,-0.998730,-0.093083,0.009080,0.018796,11.711498,-6.670240,-23.165436,,,,,,,
1508530901.152464,-0.047974,-0.007429,2.614584,-0.108162,0.103293,-0.268092,-0.047954,0.007429,-0.998822,-0.099293,0.020373,0.012280,11.799612,-6.547847,-23.155636,,,,,,,
1508530901.172471,-0.046178,-0.009093,2.609788,-0.083761,0.085416,-0.212537,-0.046160,0.009093,-0.998893,-0.113859,0.034959,0.010810,11.840037,-6.492596,-23.150558,,,,,,,
1508530901.192481,-0.059032,-0.014379,2.606566,-0.043508,0.089952,-0.111051,-0.058992,0.014379,-0.998155,-0.119582,0.041865,0.019288,11.600163,-6.270280,-23.332563,,,,,,,
1508530901.212492,-0.057910,-0.014506,2.605378,0.009617,0.030719,-0.029737,-0.057872,0.014505,-0.998219,-0.117162,0.053030,0.007176,11.643554,-6.241099,-23.318769,,,,,,,
1508530901.232499,-0.057510,-0.013961,2.606087,0.038177,0.026836,0.079100,-0.057473,0.013961,-0.998249,-0.121055,0.050553,0.003605,11.650711,-6.242049,-23.314939,,,,,,,
1508530901.252508,-0.067411,-0.016392,2.609046,0.033644,0.124945,0.196258,-0.067351,0.016392,-0.997595,-0.101091,0.023586,-0.000910,11.392540,-6.230249,-23.445312,,,,,,,
1508530901.272536,-0.063701,-0.016231,2.614214,0.018518,0.213477,0.296286,-0.063650,0.016230,-0.997840,-0.096461,0.019232,-0.002526,11.437992,-6.296762,-23.405378,,,,,,,
1508530901.292538,-0.066242,-0.018077,2.621443,0.002273,0.332845,0.412299,-0.066183,0.018076,-0.997644,-0.090159,0.014547,-0.000586,11.471191,-6.335688,-23.378613,,,,,,,
1508530901.312532,-0.067837,-0.019015,2.630723,0.055318,0.377722,0.503274,-0.067773,0.019014,-0.997520,-0.041084,-0.000581,-0.023461,11.215415,-6.430458,-23.476633,,,,,,,
1508530901.332563,-0.061289,-0.018440,2.641408,0.052104,0.275882,0.543630,-0.061241,0.018439,-0.997953,0.006278,-0.018393,-0.008837,11.308326,-6.577801,-23.391087,,,,,,,
1508530901.352565,-0.056585,-0.018738,2.652437,0.005270,0.202649,0.555965,-0.056544,0.018737,-0.998224,0.002254,-0.022247,0.001291,11.334035,-6.649865,-23.358244,,,,,,,
1508530901.372560,-0.052707,-0.018986,2.664063,0.028632,0.170924,0.600854,-0.052673,0.018985,-0.998431,-0.029190,-0.029010,0.000857,11.360785,-6.851423,-23.286888,,,,,,,
1508530901.392591,-0.049287,-0.019225,2.677258,0.011425,0.152173,0.703978,-0.049258,0.019224,-0.998601,-0.047254,-0.033247,0.002584,11.354162,-6.967084,-23.255783,,,,,,,
1508530901.412573,-0.045728,-0.019752,2.693192,0.020733,0.175003,0.854201,-0.045703,0.019751,-0.998760,-0.074292,-0.034017,0.000927,11.333553,-7.091222,-23.228296,,,,,,,
1508530901.432583,-0.041016,-0.019801,2.711898,0.040730,0.246565,0.967283,-0.040997,0.019800,-0.998963,0.004208,-0.040399,0.015427,11.274103,-7.403781,-23.159605,,,,,,,
1508530901.452605,-0.035551,-0.019624,2.730824,0.050398,0.243206,0.919447,-0.035537,0.019623,-0.999176,0.019958,-0.047531,-0.005295,11.248278,-7.639040,-23.095671,,,,,,,
1508530901.472608,-0.030685,-0.019215,2.748970,0.048288,0.224066,0.914091,-0.030674,0.019214,-0.999345,0.009770,-0.040180,-0.007506,11.233065,-7.753543,-23.064899,,,,,,,
1508530901.492618,-0.025441,-0.018769,2.768391,0.054496,0.252016,1.008926,-0.025434,0.018768,-0.999500,-0.015399,-0.036468,0.002995,11.171793,-8.100257,-22.975323,,,,,,,
1508530901.512633,-0.020071,-0.017594,2.790370,0.104285,0.237641,1.158390,-0.020067,0.017593,-0.999644,-0.010512,-0.038833,-0.011159,11.130847,-8.296747,-22.925028,,,,,,,
1508530901.532628,-0.016076,-0.015536,2.815895,0.125318,0.153251,1.332053,-0.016073,0.015536,-0.999750,-0.008188,-0.050982,-0.015036,11.064225,-8.525952,-22.873123,,,,,,,
1508530901.552645,-0.013626,-0.014007,2.842926,0.076398,0.065076,1.324129,-0.013624,0.014006,-0.999809,0.124205,-0.055907,0.022560,10.811313,-9.040915,-22.796185,,,,,,,
1508530901.572673,-0.013468,-0.012563,2.866547,0.117339,-0.066442,1.086930,-0.013466,0.012562,-0.999830,0.159600,-0.021550,0.014967,10.594914,-9.341679,-22.776512,,,,,,,
1508530901.592681,-0.015178,-0.009194,2.886971,0.212260,-0.095463,1.004641,-0.015177,0.009194,-0.999843,0.106562,-0.009011,0.006541,10.476334,-9.484334,-22.772406,,,,,,,
1508530901.612675,-0.017055,-0.005368,2.907525,0.191985,-0.110221,1.034276,-0.017054,0.005368,-0.999840,0.017604,-0.038343,-0.014427,10.113599,-9.937082,-22.743311,,,,,,,
1508530901.632700,-0.019834,-0.002074,2.928617,0.189823,-0.156851,1.066165,-0.019833,0.002074,-0.999801,0.017422,-0.028929,0.013015,9.843493,-10.229314,-22.732256,,,,,,,
1508530901.652703,-0.021610,0.001634,2.950908,0.210961,-0.034502,1.120734,-0.021608,-0.001634,-0.999765,0.055772,-0.025862,0.030863,9.699190,-10.378874,-22.726490,,,,,,,
1508530901.672709,-0.020893,0.005226,2.971570,0.206959,0.050949,0.949342,-0.020892,-0.005225,-0.999768,0.149203,-0.031563,0.017239,9.340515,-10.828984,-22.666639,,,,,,,
1508530901.692727,-0.020286,0.009631,2.988214,0.248805,0.038613,0.769736,-0.020283,-0.009631,-0.999748,0.086369,-0.032789,-0.018624,9.167228,-11.093181,-22.609554,,,,,,,
1508530901.712734,-0.019511,0.013894,3.003845,0.216830,0.045063,0.786513,-0.019508,-0.013893,-0.999713,0.058815,-0.036491,-0.021909,9.090885,-11.218822,-22.578363,,,,,,,
1508530901.732729,-0.018630,0.017901,3.020286,0.220979,0.073934,0.840871,-0.018626,-0.017900,-0.999666,0.044627,-0.045164,0.012209,8.852835,-11.581131,-22.489849,,,,,,,
1508530901.752755,-0.016558,0.022323,3.037672,0.234716,0.164345,0.875125,-0.016554,-0.022321,-0.999614,0.135786,-0.066318,0.059733,8.696481,-11.836054,-22.418022,,,,,,,
1508530901.772746,-0.012177,0.026613,3.053626,0.224304,0.262577,0.712207,-0.012172,-0.026610,-0.999572,0.192165,-0.054231,0.053313,8.634346,-11.963181,-22.374519,,,,,,,
1508530901.792756,-0.006837,0.030809,3.064506,0.207717,0.285037,0.449095,-0.006833,-0.030804,-0.999502,0.202924,-0.033237,0.015844,8.567864,-12.284553,-22.225439,,,,,,,
1508530901.812759,-0.002075,0.034526,3.071846,0.172800,0.227308,0.340159,-0.002074,-0.034519,-0.999402,0.122588,-0.044995,-0.010867,8.582771,-12.403459,-22.153532,,,,,,,
1508530901.832766,0.001082,0.036991,3.078643,0.087661,0.129635,0.344707,0.001081,-0.036983,-0.999315,0.107043,-0.053761,-0.019133,8.594043,-12.504496,-22.092278,,,,,,,
1508530901.852784,0.001834,0.037719,3.085225,0.014297,0.010605,0.319522,0.001833,-0.037710,-0.999287,0.148527,-0.050318,0.005162,8.539938,-12.642465,-22.034660,,,,,,,
1508530901.872811,0.001448,0.038006,3.090546,0.022014,-0.014210,0.216336,0.001447,-0.037996,-0.999277,0.205981,-0.042631,0.027796,8.464689,-12.697348,-22.032137,,,,,,,
1508530901.892818,0.000548,0.038815,3.092214,0.049019,-0.057447,0.007837,0.000548,-0.038805,-0.999247,0.221696,-0.032590,0.025873,8.436361,-12.719072,-22.030470,,,,,,,
1508530901.912828,-0.000709,0.039234,3.090906,-0.009362,-0.069450,-0.091675,-0.000708,-0.039224,-0.999230,0.131262,-0.036353,0.001931,8.399393,-12.743913,-22.030241,,,,,,,
1508530901.932839,-0.002694,0.038220,3.088853,-0.065740,-0.126836,-0.106026,-0.002692,-0.038211,-0.999266,0.083746,-0.043073,0.011015,8.385384,-12.711101,-22.054522,,,,,,,
1508530901.952824,-0.005234,0.037303,3.086645,-0.019947,-0.120511,-0.113096,-0.005230,-0.037294,-0.999291,0.071072,-0.038161,0.038750,8.370054,-12.687615,-22.073858,,,,,,,
1508530901.972827,-0.005888,0.037584,3.084106,0.022627,0.032322,-0.147766,-0.005884,-0.037575,-0.999276,0.150568,-0.008079,0.069223,8.350770,-12.648891,-22.103367,,,,,,,
1508530901.992866,-0.003977,0.038036,3.079306,0.022868,0.091272,-0.302107,-0.003974,-0.038027,-0.999269,0.168586,-0.003416,0.039476,8.433354,-12.624551,-22.085920,,,,,,,
1508530902.012874,0.013665,0.038475,3.070887,-0.000338,0.096187,-0.434319,0.013655,-0.038465,-0.999167,0.141955,-0.002474,0.029318,8.493941,-12.601962,-22.075600,,,,,,,
1508530902.032869,0.015292,0.037805,3.061523,-0.044951,0.025954,-0.475200,0.015280,-0.037796,-0.999169,0.063745,-0.017196,-0.018272,9.061889,-12.481939,-21.917391,,,,,,,
1508530902.052893,0.014389,0.036420,3.052168,-0.063002,-0.108916,-0.464804,0.014379,-0.036412,-0.999233,0.039927,-0.016735,0.007382,9.166348,-12.370720,-21.937002,,,,,,,
1508530902.072902,0.011972,0.035755,3.042834,0.000920,-0.140863,-0.477077,0.011964,-0.035748,-0.999289,0.046127,-0.013157,0.023307,9.197477,-12.315343,-21.955120,,,,,,,
1508530902.092912,0.009540,0.036610,3.032795,0.072320,-0.136779,-0.513751,0.009533,-0.036601,-0.999284,0.051426,-0.005269,0.040468,9.282056,-12.188782,-21.990129,,,,,,,
1508530902.112907,0.011246,0.038832,3.022251,0.111691,-0.063512,-0.520823,0.011237,-0.038822,-0.999183,0.058053,-0.002224,0.035621,9.430168,-12.137846,-21.955257,,,,,,,
1508530902.132930,0.009985,0.041034,3.011750,0.118121,-0.121970,-0.528267,0.009976,-0.041023,-0.999108,0.054843,-0.004296,0.051095,9.504251,-12.101278,-21.943493,,,,,,,
1508530902.152925,0.008112,0.044197,3.001071,0.178853,-0.222897,-0.522518,0.008104,-0.044183,-0.998991,0.024122,-0.003058,0.098844,9.614848,-12.051876,-21.922493,,,,,,,
1508530902.172942,0.003908,0.049286,2.991004,0.309762,-0.226041,-0.490562,0.003904,-0.049266,-0.998778,0.025805,0.000255,0.120055,9.635508,-12.052330,-21.913168,,,,,,,
1508530902.192958,0.000174,0.057290,2.980822,0.455695,-0.217753,-0.528747,0.000174,-0.057259,-0.998359,0.044886,0.006859,0.111992,9.646384,-12.076825,-21.894890,,,,,,,
1508530902.212949,-0.004025,0.067794,2.969474,0.555913,-0.272195,-0.588651,-0.004016,-0.067742,-0.997695,0.041232,0.009194,0.034316,9.694574,-12.226906,-21.790058,,,,,,,
1508530902.232976,-0.009322,0.079599,2.957534,0.600665,-0.323224,-0.592579,-0.009292,-0.079514,-0.996790,-0.005844,0.005067,0.010569,9.712942,-12.360896,-21.706120,,,,,,,
1508530902.252985,-0.015220,0.092451,2.946667,0.654851,-0.337878,-0.521870,-0.015154,-0.092320,-0.995614,-0.010679,0.003513,0.013330,9.714407,-12.435545,-21.662785,,,,,,,
1508530902.272997,-0.020870,0.106643,2.937043,0.731428,-0.327136,-0.476510,-0.020750,-0.106441,-0.994102,-0.029406,-0.003880,0.033058,9.690898,-12.716875,-21.509445,,,,,,,
1508530902.293003,-0.026502,0.122327,2.928105,0.786775,-0.341983,-0.461158,-0.026301,-0.122022,-0.992179,-0.009618,-0.014895,-0.028878,9.670107,-12.951477,-21.378422,,,,,,,
1508530902.313015,-0.032758,0.137642,2.919288,0.714389,-0.387613,-0.457531,-0.032443,-0.137207,-0.990011,-0.004178,-0.012344,-0.062678,9.670107,-12.951477,-21.378422,,,,,,,
1508530902.333022,-0.039346,0.150620,2.910549,0.583408,-0.382202,-0.449026,-0.038891,-0.150051,-0.987913,-0.010715,-0.017002,-0.096300,9.591890,-13.386108,-21.144655,,,,,,,
1508530902.353032,-0.045010,0.161301,2.902102,0.477928,-0.332125,-0.423240,-0.044410,-0.160603,-0.986019,-0.048775,-0.041332,-0.091388,9.559384,-13.529684,-21.067854,,,,,,,
1508530902.373043,-0.049760,0.169389,2.894951,0.323358,-0.268006,-0.338223,-0.049028,-0.168580,-0.984468,-0.059538,-0.035186,-0.077910,9.546988,-13.587486,-21.036253,,,,,,,
1508530902.393051,-0.053595,0.174862,2.888917,0.172054,-0.165822,-0.303194,-0.052753,-0.173973,-0.983337,-0.037839,-0.050713,-0.072709,9.509003,-13.697202,-20.982237,,,,,,,
1508530902.413059,-0.054624,0.177135,2.883326,0.050557,-0.063642,-0.265788,-0.053742,-0.176210,-0.982884,-0.018340,-0.048033,-0.084147,9.535706,-13.696020,-20.970882,,,,,,,
1508530902.433071,-0.054079,0.176516,2.878327,-0.103923,0.004544,-0.232940,-0.053212,-0.175601,-0.983022,-0.015696,-0.057263,-0.077250,9.574748,-13.663585,-20.974255,,,,,,,
1508530902.453065,-0.056065,0.176401,2.874529,-0.201964,0.010082,-0.180509,-0.055166,-0.175487,-0.982935,-0.029993,-0.036564,-0.023794,9.653183,-13.541210,-21.017618,,,,,,,
1508530902.473086,-0.055272,0.172649,2.871636,-0.177620,0.024156,-0.101506,-0.054423,-0.171793,-0.983629,-0.010687,-0.011389,0.023515,9.634223,-13.496881,-21.054800,,,,,,,
1508530902.493069,-0.053643,0.170000,2.869779,-0.111659,0.083659,-0.088140,-0.052844,-0.169182,-0.984167,0.018481,-0.002632,0.042669,9.653626,-13.452013,-21.074617,,,,,,,
1508530902.513094,-0.048722,0.167389,2.866798,-0.070039,0.024021,-0.127236,-0.048023,-0.166608,-0.984853,0.031101,0.018339,0.017339,9.813503,-13.327283,-21.080021,,,,,,,
1508530902.533114,-0.048710,0.166242,2.864470,-0.055165,-0.038537,-0.090960,-0.048019,-0.165477,-0.985044,0.012177,0.014827,0.016904,9.844375,-13.275422,-21.098343,,,,,,,
1508530902.553096,-0.050772,0.166093,2.863803,0.018177,-0.093511,-0.003087,-0.050052,-0.165330,-0.984967,-0.004529,0.005220,0.039594,9.841608,-13.251163,-21.114878,,,,,,,
1508530902.573133,-0.053383,0.167902,2.865109,0.137266,-0.121903,0.097961,-0.052607,-0.167115,-0.984533,-0.014730,-0.006714,0.046117,9.762091,-13.286863,-21.129353,,,,,,,
1508530902.593127,-0.055120,0.174398,2.867952,0.195723,-0.081375,0.151711,-0.054257,-0.173515,-0.983335,0.014645,-0.008308,0.025206,9.677956,-13.421359,-21.083002,,,,,,,
1508530902.613151,-0.051391,0.180440,2.870082,0.172330,-0.010285,0.118564,-0.050535,-0.179462,-0.982466,0.039564,-0.012356,0.006453,9.704558,-13.549783,-20.988415,,,,,,,
1508530902.633150,-0.051382,0.183169,2.871339,0.120308,0.021280,0.023396,-0.050500,-0.182147,-0.981974,0.044412,-0.021207,-0.009481,9.735069,-13.671324,-20.895264,,,,,,,
1508530902.653166,-0.050484,0.184771,2.871719,0.057474,0.061669,0.019714,-0.049604,-0.183722,-0.981726,0.031324,-0.023584,-0.014383,9.746804,-13.714706,-20.861336,,,,,,,
1508530902.673178,-0.049286,0.185188,2.872972,0.009479,0.058674,0.067229,-0.048424,-0.184131,-0.981708,0.031181,-0.013608,-0.014218,9.756443,-13.728148,-20.847986,,,,,,,
1508530902.693189,-0.048545,0.187975,2.874648,-0.009714,0.002513,0.104294,-0.047672,-0.186870,-0.981227,0.021671,-0.034184,-0.016072,9.773085,-13.813681,-20.783592,,,,,,,
1508530902.713198,-0.049434,0.187691,2.876630,-0.003263,-0.043248,0.081953,-0.048546,-0.186591,-0.981237,0.031792,-0.018350,-0.010721,9.738445,-13.829292,-20.789469,,,,,,,
1508530902.733206,-0.050727,0.187672,2.877568,-0.002105,-0.054047,0.031912,-0.049815,-0.186572,-0.981178,0.034541,-0.009152,-0.012078,9.718579,-13.836158,-20.794197,,,,,,,
1508530902.753210,-0.050980,0.187221,2.878258,-0.033042,0.026743,0.042365,-0.050067,-0.186129,-0.981249,0.027500,-0.002942,0.001757,9.680157,-13.841965,-20.808250,,,,,,,
1508530902.773204,-0.047824,0.186391,2.878863,-0.049044,0.059721,0.050775,-0.046977,-0.185314,-0.981556,0.030727,0.001537,0.015613,9.686405,-13.835012,-20.809967,,,,,,,
1508530902.793209,-0.044679,0.185605,2.878850,-0.037221,0.017051,-0.000268,-0.043897,-0.184541,-0.981844,0.036939,0.002062,0.020082,9.686405,-13.835012,-20.809967,,,,,,,
1508530902.813223,-0.039274,0.184669,2.877259,0.001186,-0.018130,-0.035115,-0.038596,-0.183621,-0.982239,0.019309,0.009350,0.014176,9.906446,-13.789453,-20.736490,,,,,,,
1508530902.833253,-0.038597,0.184986,2.876845,0.029863,-0.014816,0.004519,-0.037929,-0.183932,-0.982207,0.018077,0.004108,0.005919,9.929138,-13.781863,-20.730680,,,,,,,
1508530902.853244,-0.036852,0.185560,2.876812,0.029847,-0.020083,0.015162,-0.036211,-0.184497,-0.982166,0.022860,0.000583,0.004642,9.966917,-13.784935,-20.710499,,,,,,,
1508530902.873256,-0.035320,0.186333,2.876267,0.035315,-0.057410,-0.023112,-0.034701,-0.185256,-0.982077,0.021563,-0.001069,0.004081,10.005675,-13.798985,-20.682436,,,,,,,
1508530902.893280,-0.035198,0.187629,2.875322,0.038540,-0.060650,-0.039059,-0.034574,-0.186530,-0.981841,0.013425,-0.005899,0.008956,10.026739,-13.810154,-20.664772,,,,,,,
1508530902.913289,-0.035517,0.188789,2.874440,0.021502,-0.059569,-0.037070,-0.034878,-0.187670,-0.981613,0.009732,-0.007887,0.002182,10.037173,-13.824729,-20.649956,,,,,,,
1508530902.933298,-0.035313,0.189423,2.873525,-0.001936,-0.032992,-0.036178,-0.034674,-0.188293,-0.981501,0.013221,-0.006059,0.004725,10.041528,-13.832931,-20.642345,,,,,,,
1508530902.953310,-0.034484,0.189312,2.872442,-0.002989,-0.012848,-0.048949,-0.033861,-0.188183,-0.981550,0.015413,0.005383,0.006758,10.064060,-13.830923,-20.632715,,,,,,,
1508530902.973315,-0.033746,0.188892,2.871360,-0.004050,-0.001182,-0.055338,-0.033139,-0.187771,-0.981654,0.017362,0.012753,0.005320,10.081731,-13.819019,-20.632065,,,,,,,
1508530902.993327,-0.033696,0.189132,2.870252,-0.004065,-0.009639,-0.043632,-0.033089,-0.188006,-0.981610,-0.004097,-0.002805,0.007321,10.114793,-13.797279,-20.630432,,,,,,,
1508530903.013324,-0.033736,0.188880,2.869561,0.000182,-0.039333,-0.028713,-0.033130,-0.187759,-0.981656,0.009570,0.007888,0.007245,10.124617,-13.783632,-20.634735,,,,,,,
1508530903.033345,-0.034494,0.188881,2.869008,-0.003022,-0.035067,-0.024478,-0.033874,-0.187759,-0.981631,0.012481,0.003601,0.003756,10.119576,-13.780985,-20.638975,,,,,,,
1508530903.053354,-0.034987,0.188953,2.869053,0.002223,-0.018993,0.016038,-0.034357,-0.187830,-0.981600,0.006007,0.009165,0.002719,10.104716,-13.777245,-20.648752,,,,,,,
1508530903.073362,-0.036077,0.189582,2.868865,0.003373,-0.062672,-0.019121,-0.035423,-0.188448,-0.981444,-0.002281,-0.004057,0.008101,10.088733,-13.785285,-20.651199,,,,,,,
1508530903.093372,-0.036960,0.189826,2.868813,0.002244,-0.014785,0.004330,-0.036288,-0.188688,-0.981366,-0.002790,-0.001955,0.014997,10.088733,-13.785285,-20.651199,,,,,,,
1508530903.113374,-0.036627,0.190065,2.869084,0.008588,0.044733,0.012945,-0.035960,-0.188923,-0.981333,0.004618,0.001057,0.011988,10.064303,-13.799635,-20.653536,,,,,,,
1508530903.133391,-0.035305,0.190219,2.869161,0.008599,0.033038,0.009742,-0.034661,-0.189074,-0.981351,0.004799,0.002489,-0.001010,10.088035,-13.805878,-20.637781,,,,,,,
1508530903.153377,-0.035017,0.189635,2.870537,0.003155,0.041766,0.074653,-0.034382,-0.188500,-0.981471,-0.012676,-0.001777,-0.004811,10.097715,-13.797777,-20.638462,,,,,,,
1508530903.173402,-0.034772,0.190920,2.871702,0.013884,-0.024192,0.049138,-0.034133,-0.189762,-0.981237,0.012924,-0.011440,0.007238,10.078105,-13.834969,-20.623144,,,,,,,
1508530903.193418,-0.034695,0.191246,2.872012,0.032065,-0.040278,0.007751,-0.034055,-0.190082,-0.981177,0.016752,0.004780,0.008384,10.073565,-13.855233,-20.611755,,,,,,,
1508530903.213405,-0.034278,0.191714,2.871516,0.038509,-0.026594,-0.028388,-0.033643,-0.190541,-0.981103,0.016355,0.007573,0.002480,10.085444,-13.860085,-20.602682,,,,,,,
1508530903.233430,-0.033163,0.191707,2.870961,0.059792,-0.011728,-0.028202,-0.032550,-0.190535,-0.981141,0.015612,0.019590,-0.015441,10.111401,-13.862875,-20.588079,,,,,,,
1508530903.253446,-0.035568,0.193080,2.869159,0.077079,-0.292410,-0.091092,-0.034900,-0.191883,-0.980797,0.013888,-0.006817,-0.028770,10.106263,-13.859519,-20.592859,,,,,,,
1508530903.273456,-0.043136,0.195585,2.867896,0.116463,-0.435675,-0.042961,-0.042300,-0.194341,-0.980022,0.011844,-0.009806,-0.003102,10.026885,-13.877607,-20.619463,,,,,,,
1508530903.293465,-0.050041,0.198478,2.867656,0.153562,-0.251761,0.000074,-0.049038,-0.197177,-0.979141,-0.002185,0.004306,0.025512,9.838356,-13.939141,-20.668715,,,,,,,
1508530903.313475,-0.052007,0.201355,2.868664,0.108601,0.014065,0.062724,-0.050934,-0.199997,-0.978472,0.004639,-0.007950,0.040285,9.772698,-13.994827,-20.662231,,,,,,,
1508530903.333483,-0.050026,0.202629,2.871576,0.058242,0.218488,0.184908,-0.048982,-0.201245,-0.978316,-0.001006,0.012128,0.039641,9.762902,-14.037880,-20.637644,,,,,,,
1508530903.353493,-0.044713,0.202838,2.874732,-0.014061,0.285186,0.108765,-0.043782,-0.201450,-0.978520,-0.004787,-0.037549,0.036198,9.832563,-14.114692,-20.552004,,,,,,,
1508530903.373503,-0.040948,0.202918,2.875224,0.032009,0.105239,-0.002789,-0.040097,-0.201529,-0.978662,0.011105,-0.008478,-0.020041,9.892696,-14.119431,-20.519867,,,,,,,
1508530903.393510,-0.039714,0.203969,2.874848,0.051257,0.036081,-0.030366,-0.038881,-0.202558,-0.978498,0.015367,-0.004916,-0.015398,9.935831,-14.129826,-20.491850,,,,,,,
1508530903.413521,-0.037802,0.204665,2.874274,0.018177,0.148739,-0.020971,-0.037004,-0.203240,-0.978430,0.006685,0.000893,0.000540,9.984611,-14.149647,-20.454430,,,,,,,
1508530903.433530,-0.033822,0.204855,2.874219,0.014904,0.190288,0.012041,-0.033109,-0.203425,-0.978530,0.001798,0.004191,0.007965,10.041883,-14.151882,-20.424826,,,,,,,
1508530903.453512,-0.030921,0.205432,2.874840,0.035109,0.138324,0.040916,-0.030266,-0.203990,-0.978505,0.007928,0.005886,0.015691,10.099092,-14.157061,-20.393003,,,,,,,
1508530903.473543,-0.028150,0.206174,2.875942,0.025500,0.129895,0.058931,-0.027550,-0.204716,-0.978434,0.010063,-0.003353,-0.001471,10.165852,-14.191395,-20.335892,,,,,,,
1508530903.493558,-0.025659,0.206068,2.876698,-0.017021,0.138270,0.017061,-0.025114,-0.204613,-0.978521,0.007184,-0.017738,-0.028071,10.212930,-14.204943,-20.302816,,,,,,,
1508530903.513546,-0.022644,0.205590,2.876596,-0.021247,0.157309,-0.007448,-0.022166,-0.204145,-0.978690,-0.004965,-0.005084,-0.044427,10.256340,-14.200476,-20.284048,,,,,,,
1508530903.533571,-0.020637,0.204336,2.876724,-0.096831,0.051195,0.015272,-0.020207,-0.202918,-0.978987,-0.000530,-0.003183,-0.028047,10.322685,-14.178688,-20.265627,,,,,,,
1508530903.553502,-0.021891,0.201841,2.876930,-0.158483,-0.143187,0.012487,-0.021445,-0.200474,-0.979464,0.005301,-0.007061,-0.000074,10.310628,-14.133562,-20.303253,,,,,,,
1508530903.573484,-0.025278,0.198921,2.876343,-0.176435,-0.262332,-0.037795,-0.024777,-0.197612,-0.979967,0.021572,-0.008473,0.030886,10.267952,-14.089180,-20.355658,,,,,,,
1508530903.593520,-0.030656,0.196343,2.874685,-0.089029,-0.257265,-0.094566,-0.030063,-0.195084,-0.980326,0.012012,-0.004822,0.021830,10.159307,-14.001339,-20.470459,,,,,,,
1508530903.613530,-0.032162,0.196746,2.873527,0.041633,0.021325,-0.000644,-0.031536,-0.195480,-0.980201,-0.009037,-0.010346,0.017432,10.124564,-13.969671,-20.509270,,,,,,,
1508530903.633538,-0.029620,0.197546,2.875536,0.016816,0.252290,0.120707,-0.029040,-0.196263,-0.980121,-0.001402,0.019078,0.052555,10.125751,-14.002974,-20.485960,,,,,,,
1508530903.653549,-0.020137,0.197234,2.877490,-0.005653,0.675968,0.062281,-0.019745,-0.195957,-0.980414,-0.029891,0.036000,0.087500,10.262896,-14.032314,-20.397446,,,,,,,
1508530903.673561,-0.003210,0.198508,2.878428,0.118815,0.904289,0.058158,-0.003147,-0.197207,-0.980357,-0.021343,0.027636,0.072566,10.574230,-14.055389,-20.221779,,,,,,,
1508530903.693566,0.012760,0.202452,2.880506,0.226326,0.732364,0.123864,0.012499,-0.201072,-0.979497,-0.029223,0.030799,0.044987,10.745813,-14.090460,-20.106592,,,,,,,
1508530903.713575,0.022948,0.206625,2.883107,0.176436,0.412642,0.127470,0.022458,-0.205157,-0.978471,0.011538,0.010501,-0.032149,11.104612,-14.257874,-19.791140,,,,,,,
1508530903.733585,0.026499,0.208761,2.884969,0.064921,0.061915,0.065594,0.025920,-0.207248,-0.977945,0.029027,-0.007413,-0.047583,11.185685,-14.334500,-19.689875,,,,,,,
1508530903.753594,0.023456,0.209296,2.885121,0.008805,-0.264495,-0.021361,0.022942,-0.207772,-0.977908,0.030280,-0.015693,-0.041699,11.181265,-14.351528,-19.679979,,,,,,,
1508530903.773590,0.015838,0.209273,2.884060,-0.000607,-0.449493,-0.066298,0.015491,-0.207749,-0.978059,0.019207,-0.007369,-0.004729,11.025233,-14.349030,-19.769629,,,,,,,
1508530903.793613,0.006005,0.208921,2.882540,-0.001628,-0.501585,-0.076993,0.005874,-0.207405,-0.978238,-0.002746,0.006355,-0.010685,10.849814,-14.326735,-19.882526,,,,,,,
1508530903.813603,-0.002860,0.208587,2.881279,-0.026203,-0.414375,-0.052640,-0.002798,-0.207078,-0.978320,-0.016031,0.003602,-0.011609,10.719178,-14.313108,-19.963037,,,,,,,
1508530903.833628,-0.008524,0.207888,2.880662,-0.039150,-0.201774,-0.016385,-0.008340,-0.206394,-0.978433,-0.025855,-0.010647,0.017145,10.552475,-14.286907,-20.070332,,,,,,,
1508530903.853640,-0.010200,0.208123,2.880879,-0.032937,0.061772,0.010485,-0.009980,-0.206623,-0.978370,-0.020614,-0.015941,0.032889,10.513187,-14.269572,-20.103254,,,,,,,
1508530903.873650,-0.006244,0.207877,2.881581,0.005265,0.277535,0.050391,-0.006110,-0.206383,-0.978452,-0.013086,0.005623,0.029249,10.525248,-14.286931,-20.084608,,,,,,,
1508530903.893632,-0.000493,0.208134,2.882954,0.053120,0.345544,0.063614,-0.000482,-0.206634,-0.978418,-0.015616,0.014206,0.013132,10.655352,-14.310402,-19.999115,,,,,,,
1508530903.913668,0.005574,0.209354,2.884220,0.058481,0.287098,0.059355,0.005452,-0.207829,-0.978150,-0.004705,0.010822,0.004426,10.755848,-14.339584,-19.924276,,,,,,,
1508530903.933679,0.009668,0.210171,2.885255,0.030886,0.170196,0.042003,0.009455,-0.208627,-0.977950,0.000494,0.012216,0.000822,10.801908,-14.356771,-19.886946,,,,,,,
1508530903.953687,0.011780,0.210296,2.885524,0.018250,0.024526,0.002393,0.011520,-0.208750,-0.977901,0.014801,0.004206,-0.003742,10.888158,-14.379062,-19.823706,,,,,,,
1508530903.973698,0.010396,0.210669,2.885028,0.017334,-0.130716,-0.038192,0.010166,-0.209114,-0.977838,0.007229,0.006218,-0.007299,10.885299,-14.383303,-19.822199,,,,,,,
1508530903.993704,0.006689,0.210558,2.884056,0.001429,-0.238029,-0.045858,0.006541,-0.209005,-0.977893,0.006810,0.005529,-0.006223,10.854731,-14.382402,-19.839607,,,,,,,
1508530904.013715,0.001628,0.210322,2.883301,-0.016689,-0.262393,-0.028990,0.001592,-0.208775,-0.977962,-0.011327,-0.000942,0.002392,10.734701,-14.361540,-19.919867,,,,,,,
1508530904.033699,-0.002784,0.210163,2.882934,0.001343,-0.189038,-0.010685,-0.002723,-0.208619,-0.977993,-0.014336,-0.007628,0.010922,10.644305,-14.351746,-19.975355,,,,,,,
1508530904.053733,-0.004802,0.210518,2.883036,0.025711,-0.041292,0.016246,-0.004696,-0.208967,-0.977911,-0.012974,-0.006258,0.013022,10.610876,-14.351858,-19.993052,,,,,,,
1508530904.073741,-0.004461,0.211406,2.883933,0.024512,0.110740,0.050424,-0.004362,-0.209835,-0.977727,-0.013903,-0.002857,0.019368,10.575426,-14.381425,-19.990589,,,,,,,
1508530904.093751,-0.001988,0.211969,2.885360,0.023378,0.181983,0.069634,-0.001944,-0.210385,-0.977617,-0.013574,0.000424,0.010377,10.605019,-14.406612,-19.956747,,,,,,,
1508530904.113760,0.000650,0.212542,2.887048,0.032962,0.123606,0.085640,0.000635,-0.210946,-0.977498,-0.012049,0.004357,0.004918,10.629878,-14.419118,-19.934479,,,,,,,
1508530904.133769,0.002152,0.213083,2.888477,0.031974,0.066144,0.057905,0.002103,-0.211474,-0.977381,0.005785,-0.001538,-0.004217,10.667306,-14.460981,-19.884096,,,,,,,
1508530904.153779,0.002962,0.214433,2.889029,0.012916,-0.005159,0.018298,0.002894,-0.212793,-0.977093,0.006246,-0.013724,-0.002964,10.675852,-14.486683,-19.860788,,,,,,,
1508530904.173771,0.002670,0.215277,2.888966,0.006595,-0.035001,-0.010525,0.002608,-0.213618,-0.976914,0.004411,-0.014669,0.000855,10.675852,-14.486683,-19.860788,,,,,,,
1508530904.193791,0.000871,0.215434,2.888794,-0.007181,-0.084936,-0.012777,0.000851,-0.213771,-0.976883,-0.005718,0.006450,0.002655,10.668928,-14.523476,-19.837624,,,,,,,
1508530904.213807,-0.001205,0.214947,2.888604,-0.001853,-0.092379,-0.013803,-0.001177,-0.213295,-0.976987,-0.005278,0.012032,0.008008,10.614954,-14.513920,-19.873541,,,,,,,
1508530904.233799,-0.002585,0.214621,2.888220,0.006660,-0.040374,-0.026470,-0.002526,-0.212977,-0.977054,-0.005256,0.012751,0.008258,10.594601,-14.504916,-19.890965,,,,,,,
1508530904.253825,-0.003580,0.214792,2.887742,0.014106,0.001025,-0.033830,-0.003498,-0.213144,-0.977015,-0.012722,0.000207,0.008097,10.570944,-14.491752,-19.913136,,,,,,,
1508530904.273836,-0.004119,0.215328,2.887340,0.018341,0.012744,-0.023138,-0.004024,-0.213668,-0.976898,-0.011861,-0.002366,0.006241,10.562576,-14.495945,-19.914522,,,,,,,
1508530904.293844,-0.004405,0.215771,2.887224,0.018309,0.023417,-0.008224,-0.004303,-0.214101,-0.976802,-0.009598,0.001973,0.005779,10.552941,-14.504591,-19.913336,,,,,,,
1508530904.313834,-0.003877,0.215849,2.887146,0.011905,0.046799,-0.006129,-0.003787,-0.214177,-0.976788,-0.002591,0.005284,0.004238,10.559625,-14.510029,-19.905830,,,,,,,
1508530904.333851,-0.002945,0.215898,2.887042,0.004455,0.043612,-0.007258,-0.002877,-0.214225,-0.976780,-0.003761,0.003440,0.002384,10.577717,-14.508252,-19.897514,,,,,,,
1508530904.353872,-0.002931,0.215749,2.887012,0.001272,-0.010536,0.001193,-0.002863,-0.214080,-0.976812,-0.007040,0.007216,0.000143,10.586472,-14.508314,-19.892815,,,,,,,
1508530904.373871,-0.003866,0.215462,2.887300,-0.001932,-0.051922,0.018194,-0.003777,-0.213799,-0.976870,-0.000267,0.011651,0.005694,10.568172,-14.501557,-19.907467,,,,,,,
1508530904.393867,-0.004929,0.215412,2.887708,0.010836,-0.047667,0.021497,-0.004815,-0.213750,-0.976876,0.003564,0.006856,0.002618,10.542783,-14.503357,-19.919613,,,,,,,
1508530904.413899,-0.005594,0.215637,2.888150,0.007626,-0.014733,0.021495,-0.005465,-0.213970,-0.976825,0.005404,0.008251,0.007007,10.530720,-14.508159,-19.922499,,,,,,,
1508530904.433909,-0.005486,0.215271,2.888578,-0.028594,0.019284,0.022287,-0.005359,-0.213612,-0.976904,0.004779,-0.001918,0.006582,10.516426,-14.513481,-19.926170,,,,,,,
1508530904.453919,-0.004941,0.214571,2.889075,-0.057352,0.018260,0.028437,-0.004828,-0.212928,-0.977056,0.006323,-0.008080,0.000661,10.522853,-14.507266,-19.927303,,,,,,,
1508530904.473928,-0.005164,0.213316,2.889388,-0.063677,-0.029620,0.005989,-0.005047,-0.211702,-0.977321,0.006511,0.002992,-0.001408,10.522043,-14.498175,-19.934347,,,,,,,
1508530904.493937,-0.006330,0.211335,2.888956,-0.072088,-0.113674,-0.032475,-0.006189,-0.209766,-0.977732,0.008813,0.016666,0.007044,10.504819,-14.446329,-19.981018,,,,,,,
1508530904.513946,-0.009725,0.210322,2.887696,-0.080474,-0.224301,-0.075218,-0.009510,-0.208775,-0.977917,-0.001873,-0.011913,0.003354,10.459624,-14.407183,-20.032923,,,,,,,
1508530904.533940,-0.015462,0.209430,2.886094,-0.064449,-0.323114,-0.077289,-0.015123,-0.207902,-0.978033,-0.001143,-0.014662,0.009313,10.459624,-14.407183,-20.032923,,,,,,,
1508530904.553964,-0.021848,0.208754,2.884923,-0.009192,-0.285918,-0.049113,-0.021372,-0.207241,-0.978056,-0.005987,0.003856,0.001860,10.254427,-14.349201,-20.180086,,,,,,,
1508530904.573974,-0.026209,0.209297,2.884495,0.051350,-0.092505,-0.019718,-0.025634,-0.207772,-0.977841,-0.013246,0.003564,0.021634,10.158272,-14.344278,-20.232151,,,,,,,
1508530904.593983,-0.024590,0.211249,2.884686,0.062834,0.265595,0.009396,-0.024041,-0.209681,-0.977474,-0.014579,-0.005193,0.037350,10.136312,-14.368353,-20.226080,,,,,,,
1508530904.613992,-0.017758,0.212627,2.885652,0.049911,0.362471,0.065794,-0.017357,-0.211029,-0.977326,-0.000770,0.003753,0.011490,10.267423,-14.421031,-20.122189,,,,,,,
1508530904.634002,-0.011425,0.213050,2.887358,0.042454,0.282887,0.090161,-0.011166,-0.211442,-0.977327,0.006924,0.005402,-0.013411,10.382740,-14.451004,-20.041355,,,,,,,
1508530904.654010,-0.006968,0.213214,2.888824,0.011684,0.121374,0.073814,-0.006810,-0.211602,-0.977332,0.019689,0.003900,-0.021234,10.453770,-14.467789,-19.992260,,,,,,,
1508530904.674021,-0.007236,0.212975,2.889805,-0.024342,-0.077413,0.030776,-0.007072,-0.211368,-0.977381,0.019828,0.012516,-0.017950,10.479401,-14.479691,-19.970213,,,,,,,
1508530904.694007,-0.010709,0.212392,2.889899,-0.028535,-0.213594,-0.006629,-0.010468,-0.210799,-0.977473,0.020524,0.006698,0.001155,10.419868,-14.471457,-20.007299,,,,,,,
1508530904.714038,-0.014602,0.212063,2.889527,-0.011486,-0.208319,-0.015002,-0.014275,-0.210477,-0.977494,0.018318,-0.000659,0.007921,10.377396,-14.464937,-20.034069,,,,,,,
1508530904.734049,-0.017472,0.212114,2.889268,0.010807,-0.098887,-0.008347,-0.017080,-0.210527,-0.977439,0.000265,-0.007659,0.013221,10.278832,-14.455503,-20.091606,,,,,,,
1508530904.754057,-0.017718,0.212799,2.889469,0.050081,0.045668,0.019770,-0.017317,-0.211197,-0.977290,-0.000475,-0.012039,0.010295,10.259595,-14.465845,-20.093998,,,,,,,
1508530904.774066,-0.015484,0.214216,2.890115,0.081936,0.160444,0.037156,-0.015130,-0.212581,-0.977026,-0.002418,-0.013676,0.010245,10.268446,-14.479069,-20.079947,,,,,,,
1508530904.794076,-0.011402,0.216412,2.891174,0.087179,0.248690,0.058560,-0.011136,-0.214727,-0.976611,-0.003726,-0.008952,0.015856,10.352498,-14.549629,-19.985561,,,,,,,
1508530904.814085,-0.005786,0.217995,2.892241,0.073336,0.291150,0.046766,-0.005649,-0.216272,-0.976317,0.004367,0.005030,0.014021,10.449026,-14.594057,-19.902765,,,,,,,
1508530904.834071,-0.000180,0.219061,2.892981,0.043573,0.267719,0.025208,-0.000176,-0.217313,-0.976102,0.010506,0.034543,0.007932,10.500976,-14.612420,-19.861906,,,,,,,
1508530904.854105,0.003156,0.219678,2.892778,0.023440,0.084706,-0.033674,0.003080,-0.217915,-0.975963,0.014025,-0.009517,-0.004186,10.635666,-14.642171,-19.768106,,,,,,,
1508530904.874112,0.001890,0.220529,2.891345,0.002370,-0.178925,-0.086220,0.001844,-0.218746,-0.975780,0.001589,-0.018879,-0.012547,10.646485,-14.637455,-19.765778,,,,,,,
1508530904.894094,-0.003801,0.219908,2.889404,-0.053959,-0.359516,-0.093210,-0.003709,-0.218140,-0.975910,-0.006682,-0.014892,-0.009273,10.597033,-14.631594,-19.796667,,,,,,,
1508530904.914132,-0.011224,0.218354,2.887882,-0.077434,-0.358342,-0.064655,-0.010957,-0.216623,-0.976194,-0.006865,-0.000112,-0.003283,10.447871,-14.576878,-19.915958,,,,,,,
1508530904.934140,-0.016452,0.217515,2.886869,-0.018991,-0.207437,-0.040634,-0.016064,-0.215804,-0.976305,-0.007435,0.012343,0.015291,10.332808,-14.542606,-20.000858,,,,,,,
1508530904.954150,-0.018194,0.217758,2.886379,0.024519,0.014636,-0.020941,-0.017763,-0.216041,-0.976223,-0.010389,0.008109,0.034816,10.294364,-14.535662,-20.025717,,,,,,,
1508530904.974160,-0.015333,0.218318,2.886251,0.027577,0.208058,0.001590,-0.014968,-0.216588,-0.976148,-0.005875,0.007634,0.030851,10.322990,-14.545272,-20.003992,,,,,,,
1508530904.994154,-0.010131,0.218710,2.886559,0.025375,0.287797,0.019733,-0.009889,-0.216971,-0.976128,-0.004591,0.004614,0.007943,10.420147,-14.557255,-19.944813,,,,,,,
1508530905.014177,-0.005219,0.219231,2.886928,0.025316,0.210133,0.014329,-0.005094,-0.217479,-0.976052,-0.001787,-0.000280,-0.014869,10.496047,-14.566420,-19.898270,,,,,,,
1508530905.034187,-0.003101,0.219477,2.887046,0.016907,0.033749,0.002414,-0.003027,-0.217719,-0.976007,0.001867,0.000937,-0.019263,10.574685,-14.581408,-19.845585,,,,,,,
1508530905.054176,-0.004702,0.219667,2.887104,0.006339,-0.135146,0.005393,-0.004589,-0.217904,-0.975959,0.005169,0.005014,-0.004769,10.561071,-14.582788,-19.851820,,,,,,,
1508530905.074205,-0.007947,0.219685,2.887393,-0.003258,-0.152093,0.018078,-0.007756,-0.217922,-0.975935,0.008992,0.010540,0.004744,10.531122,-14.584627,-19.866373,,,,,,,
1508530905.094215,-0.009207,0.219081,2.887601,-0.012886,-0.029952,0.008508,-0.008987,-0.217333,-0.976056,0.011673,0.014406,0.013471,10.456292,-14.578102,-19.910639,,,,,,,
1508530905.114224,-0.008087,0.218406,2.887402,-0.010767,0.075133,-0.015884,-0.007895,-0.216674,-0.976212,0.004904,0.012389,0.004349,10.468234,-14.563718,-19.914890,,,,,,,
1508530905.134233,-0.006803,0.218049,2.887120,-0.004373,0.054953,-0.013717,-0.006642,-0.216326,-0.976299,-0.006725,0.005815,-0.001576,10.495963,-14.558689,-19.903971,,,,,,,
1508530905.154240,-0.007021,0.217899,2.887239,-0.003317,-0.024626,0.013915,-0.006855,-0.216179,-0.976330,-0.004894,0.003578,0.004406,10.503120,-14.549669,-19.906788,,,,,,,
1508530905.174252,-0.007778,0.217780,2.887754,0.000814,-0.041646,0.029884,-0.007594,-0.216063,-0.976350,0.005320,0.004393,0.009568,10.485806,-14.551416,-19.914637,,,,,,,
1508530905.194249,-0.007859,0.217871,2.888151,0.004012,-0.001326,0.016099,-0.007673,-0.216151,-0.976330,0.009275,0.001658,0.010708,10.469783,-14.556561,-19.919308,,,,,,,
1508530905.214274,-0.007922,0.217908,2.888380,-0.008752,0.002900,0.007479,-0.007734,-0.216187,-0.976321,-0.003588,-0.002120,0.003085,10.473918,-14.560112,-19.914539,,,,,,,
1508530905.234262,-0.008645,0.217721,2.888680,-0.022585,-0.041682,0.015849,-0.008441,-0.216005,-0.976356,-0.005155,-0.005324,0.001624,10.458338,-14.562920,-19.920673,,,,,,,
1508530905.254257,-0.010294,0.217422,2.889259,-0.010884,-0.063952,0.028706,-0.010052,-0.215713,-0.976405,-0.002003,0.001769,0.002879,10.433636,-14.562021,-19.934277,,,,,,,
1508530905.274298,-0.011248,0.217202,2.889782,0.006145,-0.023622,0.020359,-0.010983,-0.215498,-0.976443,0.000867,0.005049,0.006426,10.393447,-14.563503,-19.954182,,,,,,,
1508530905.294308,-0.011292,0.217187,2.890051,0.004015,0.017769,0.008660,-0.011026,-0.215483,-0.976445,-0.001913,0.003050,0.006246,10.386511,-14.564014,-19.957418,,,,,,,
1508530905.314305,-0.011184,0.216988,2.890274,-0.013023,0.007169,0.012771,-0.010922,-0.215289,-0.976489,-0.005344,0.003940,0.005435,10.388007,-14.565379,-19.955643,,,,,,,
1508530905.334300,-0.011917,0.215969,2.890666,-0.008868,-0.021580,0.014883,-0.011640,-0.214294,-0.976700,-0.002902,0.011948,0.011108,10.373312,-14.553046,-19.972279,,,,,,,
1508530905.354335,-0.012286,0.215780,2.890755,0.015646,-0.005724,-0.004068,-0.012000,-0.214110,-0.976736,-0.000161,0.013670,0.012289,10.361924,-14.548517,-19.981487,,,,,,,
1508530905.374333,-0.011549,0.216023,2.890328,0.027379,0.044108,-0.030552,-0.011280,-0.214346,-0.976693,0.003453,0.011832,0.010857,10.360878,-14.546097,-19.983791,,,,,,,
1508530905.394328,-0.010129,0.215995,2.889406,0.017825,0.057849,-0.051915,-0.009894,-0.214320,-0.976713,-0.001932,0.003337,-0.001268,10.406104,-14.540161,-19.964603,,,,,,,
1508530905.414363,-0.009520,0.216144,2.888253,0.000833,-0.001660,-0.059553,-0.009298,-0.214465,-0.976687,-0.005137,-0.000897,-0.003537,10.432640,-14.531096,-19.957354,,,,,,,
1508530905.434348,-0.010636,0.216294,2.887128,-0.007651,-0.086624,-0.054364,-0.010388,-0.214612,-0.976644,-0.007633,-0.008746,-0.002314,10.441534,-14.522535,-19.958931,,,,,,,
1508530905.454382,-0.013261,0.217349,2.886410,-0.000222,-0.112046,-0.031962,-0.012949,-0.215642,-0.976387,-0.005957,-0.016673,0.004493,10.396235,-14.522233,-19.982786,,,,,,,
1508530905.474391,-0.014845,0.218665,2.886203,0.003946,-0.031203,-0.000989,-0.014491,-0.216927,-0.976080,-0.003743,-0.023109,0.011801,10.359395,-14.540260,-19.988808,,,,,,,
1508530905.494388,-0.013933,0.219436,2.886694,0.011264,0.108093,0.037508,-0.013599,-0.217679,-0.975926,-0.003476,-0.021701,0.009877,10.353416,-14.555444,-19.980854,,,,,,,
1508530905.514410,-0.010199,0.220967,2.887831,0.019549,0.220732,0.070630,-0.009951,-0.219173,-0.975635,0.009310,-0.005452,0.014454,10.408134,-14.607552,-19.914288,,,,,,,
1508530905.534420,-0.004465,0.221288,2.889234,0.028031,0.245210,0.083495,-0.004356,-0.219487,-0.975606,0.025413,0.009114,0.006139,10.497681,-14.635950,-19.846317,,,,,,,
1508530905.554428,0.000779,0.221360,2.890345,0.038762,0.160136,0.059029,0.000760,-0.219556,-0.975600,0.029574,0.014493,-0.002687,10.581429,-14.645124,-19.795010,,,,,,,
1508530905.574438,0.002490,0.221587,2.890840,0.022949,-0.012097,0.017243,0.002429,-0.219778,-0.975547,0.024442,0.016882,-0.009713,10.655044,-14.657246,-19.746489,,,,,,,
1508530905.594429,0.000064,0.221521,2.890860,-0.019516,-0.177882,-0.006657,0.000062,-0.219713,-0.975564,0.020934,0.017077,-0.008353,10.635710,-14.662715,-19.752853,,,,,,,
1508530905.614455,-0.004339,0.220833,2.890588,-0.038639,-0.232081,-0.015374,-0.004234,-0.219043,-0.975706,0.021843,0.018191,-0.004580,10.584957,-14.656027,-19.785049,,,,,,,
1508530905.634466,-0.007792,0.219860,2.890093,-0.020563,-0.159876,-0.022624,-0.007605,-0.218093,-0.975898,0.007452,0.014648,0.008430,10.470478,-14.621752,-19.871138,,,,,,,
1508530905.654474,-0.009509,0.219669,2.889651,-0.006895,-0.048393,-0.019261,-0.009280,-0.217906,-0.975926,-0.004056,0.008739,0.010517,10.435859,-14.613768,-19.895206,,,,,,,
1508530905.674484,-0.009443,0.219256,2.889522,-0.012298,0.041975,-0.000072,-0.009217,-0.217503,-0.976016,-0.007262,0.010579,0.009738,10.425343,-14.608644,-19.904484,,,,,,,
1508530905.694494,-0.008335,0.218426,2.889797,-0.014475,0.080272,0.014846,-0.008137,-0.216694,-0.976206,-0.003628,0.010852,0.004251,10.443328,-14.592726,-19.906731,,,,,,,
1508530905.714501,-0.006846,0.218195,2.889981,0.001524,0.064289,0.003254,-0.006683,-0.216467,-0.976267,0.000305,0.004965,0.003306,10.469828,-14.584057,-19.899162,,,,,,,
1508530905.734491,-0.006233,0.218461,2.889729,0.005857,0.000465,-0.020183,-0.006085,-0.216727,-0.976213,-0.001011,-0.004647,0.003038,10.486563,-14.584732,-19.889854,,,,,,,
1508530905.754496,-0.007204,0.218765,2.889277,-0.013266,-0.070713,-0.023589,-0.007032,-0.217024,-0.976141,-0.005678,-0.014925,0.002356,10.484859,-14.582506,-19.892382,,,,,,,
1508530905.774530,-0.009311,0.218778,2.888880,-0.022833,-0.110004,-0.020503,-0.009089,-0.217037,-0.976121,-0.006170,-0.016773,0.000962,10.460693,-14.581993,-19.905478,,,,,,,
1508530905.794529,-0.011294,0.218443,2.888414,-0.012189,-0.093023,-0.023597,-0.011025,-0.216710,-0.976174,-0.003974,-0.014613,0.002053,10.428313,-14.581343,-19.922935,,,,,,,
1508530905.814549,-0.012943,0.219283,2.888052,-0.005953,-0.039946,-0.021400,-0.012633,-0.217530,-0.975972,-0.005052,-0.007415,0.015202,10.392402,-14.578677,-19.943642,,,,,,,
1508530905.834559,-0.013161,0.219585,2.887839,-0.000682,0.022774,-0.008532,-0.012845,-0.217824,-0.975903,-0.004215,-0.002223,0.012494,10.371317,-14.587330,-19.948290,,,,,,,
1508530905.854567,-0.012109,0.219706,2.887833,0.015243,0.075920,0.002287,-0.011817,-0.217943,-0.975890,-0.001015,0.004457,0.002334,10.379121,-14.591074,-19.941490,,,,,,,
1508530905.874564,-0.010432,0.219662,2.887912,0.022688,0.083360,0.004483,-0.010181,-0.217900,-0.975918,0.000522,0.011509,-0.002460,10.416836,-14.595423,-19.918633,,,,,,,
1508530905.894582,-0.009081,0.219381,2.887939,0.016324,0.041922,0.001205,-0.008863,-0.217626,-0.975992,0.003217,0.014241,0.000406,10.440503,-14.589880,-19.910297,,,,,,,
1508530905.914595,-0.008907,0.219120,2.887893,-0.002807,-0.018632,-0.002193,-0.008694,-0.217370,-0.976050,0.003826,0.016336,0.003165,10.454585,-14.588037,-19.904259,,,,,,,
1508530905.934580,-0.009711,0.218221,2.887741,-0.011294,-0.067509,-0.006559,-0.009480,-0.216494,-0.976238,0.002355,0.015001,-0.000477,10.446320,-14.570509,-19.921429,,,,,,,
1508530905.954597,-0.011431,0.217706,2.887589,-0.007021,-0.086645,-0.009732,-0.011161,-0.215991,-0.976332,-0.003304,0.013979,-0.000872,10.416206,-14.551086,-19.951370,,,,,,,
1508530905.974623,-0.013055,0.217209,2.887435,-0.012361,-0.068571,-0.006568,-0.012748,-0.215505,-0.976420,-0.002800,0.012685,0.000025,10.400325,-14.548672,-19.961414,,,,,,,
1508530905.994633,-0.014090,0.216281,2.887489,-0.018918,-0.022907,0.006156,-0.013762,-0.214599,-0.976605,-0.003618,0.013076,0.009610,10.360856,-14.527294,-19.997475,,,,,,,
1508530906.014642,-0.014252,0.215508,2.887769,0.002340,0.020664,0.013818,-0.013922,-0.213844,-0.976769,-0.004114,0.014610,0.014260,10.350810,-14.512335,-20.013533,,,,,,,
1508530906.034651,-0.013564,0.215639,2.888094,0.023613,0.055717,0.016150,-0.013250,-0.213971,-0.976750,-0.004679,0.013502,0.017247,10.351686,-14.509749,-20.014956,,,,,,,
1508530906.054662,-0.012358,0.216143,2.888524,0.017205,0.075924,0.021436,-0.012070,-0.214464,-0.976657,-0.003326,-0.000868,0.007282,10.375889,-14.524360,-19.991812,,,,,,,
1508530906.074672,-0.011103,0.216406,2.889022,0.007625,0.057884,0.025602,-0.010844,-0.214721,-0.976615,-0.000081,-0.002717,-0.002618,10.396491,-14.536860,-19.972013,,,,,,,
1508530906.094670,-0.010573,0.216531,2.889618,0.006567,0.018604,0.033017,-0.010326,-0.214843,-0.976594,0.000178,-0.002488,-0.003295,10.403193,-14.541103,-19.965435,,,,,,,
1508530906.114688,-0.010359,0.217361,2.890348,0.002302,0.003765,0.041489,-0.010115,-0.215653,-0.976418,0.005232,-0.021667,0.004891,10.401773,-14.558031,-19.953833,,,,,,,
1508530906.134699,-0.010104,0.217944,2.891233,0.005376,0.017529,0.044693,-0.009865,-0.216223,-0.976294,0.008308,-0.020227,0.002844,10.397265,-14.576805,-19.942474,,,,,,,
1508530906.154682,-0.009383,0.218910,2.891983,0.009647,0.020693,0.038342,-0.009159,-0.217166,-0.976092,0.008503,-0.012494,0.000140,10.402137,-14.607491,-19.917467,,,,,,,
1508530906.174716,-0.008873,0.219191,2.892539,-0.002039,0.011098,0.026525,-0.008661,-0.217440,-0.976035,0.012033,-0.005751,0.010108,10.403892,-14.625978,-19.902975,,,,,,,
1508530906.194727,-0.008118,0.219449,2.892823,-0.012669,0.003643,0.018978,-0.007923,-0.217692,-0.975985,0.013767,-0.006307,0.011660,10.415468,-14.635229,-19.890116,,,,,,,
1508530906.214734,-0.007568,0.219672,2.892901,0.003333,-0.004914,0.004197,-0.007386,-0.217909,-0.975941,0.011536,-0.002458,0.004841,10.427936,-14.642088,-19.878536,,,,,,,
1508530906.234744,-0.007324,0.219820,2.892661,0.012954,-0.018791,-0.013835,-0.007148,-0.218054,-0.975911,0.009009,0.003011,-0.002636,10.435880,-14.645906,-19.871550,,,,,,,
1508530906.254737,-0.007566,0.219456,2.892169,-0.006184,-0.036877,-0.024654,-0.007384,-0.217699,-0.975988,0.004501,0.011095,-0.002757,10.441068,-14.640670,-19.872684,,,,,,,
1508530906.274762,-0.008478,0.218640,2.891652,-0.029597,-0.062361,-0.024867,-0.008276,-0.216902,-0.976158,0.001623,0.013701,-0.002968,10.437553,-14.629158,-19.883005,,,,,,,
1508530906.294772,-0.009826,0.217461,2.891169,-0.012679,-0.067703,-0.024763,-0.009594,-0.215751,-0.976401,-0.000461,0.016639,0.010550,10.410220,-14.591429,-19.925014,,,,,,,
,,,,,,,,,,,,,,,,42.293284,-71.263287,59.027126,-1.000000,-1.000000,1508530906.286532,
1508530906.314776,-0.010778,0.216767,2.890704,0.002206,-0.029466,-0.024611,-0.010525,-0.215074,-0.976541,-0.001575,0.016481,0.009866,10.396573,-14.578678,-19.941467,,,,,,,
1508530906.334789,-0.010646,0.216504,2.890213,0.002180,0.024709,-0.025635,-0.010398,-0.214816,-0.976599,-0.003396,0.015506,0.006491,10.392147,-14.561707,-19.956167,,,,,,,
