timestamp(unix),attitude_roll(radians),attitude_pitch(radians),attitude_yaw(radians),rotation_rate_x(radians/s),rotation_rate_y(radians/s),rotation_rate_z(radians/s),gravity_x(G),gravity_y(G),gravity_z(G),user_acc_x(G),user_acc_y(G),user_acc_z(G),magnetic_field_x(microteslas),magnetic_field_y(microteslas),magnetic_field_z(microteslas),latitude(degree),longitude(degree),altitude(meter),speed(m/s),course(degree),timestamp(unix),User Mark
1508522294.073633,-0.172863,1.438918,2.019747,0.052423,-0.046675,0.025068,-0.022618,-0.991317,-0.129537,0.001637,-0.013353,0.022100,-18.556555,-38.135468,-13.041827,,,,,,,
1508522294.093644,-0.185670,1.438447,2.031434,-0.038224,-0.051646,0.108431,-0.024361,-0.991255,-0.129695,-0.004798,0.023435,-0.006749,-18.606821,-38.134212,-12.973682,,,,,,,
,,,,,,,,,,,,,,,,42.293467,-71.263992,58.531975,-1.000000,-1.000000,1508522142.301057,
1508522294.113666,-0.200226,1.437354,2.046229,-0.020141,0.036467,0.093740,-0.026462,-0.991110,-0.130388,-0.008893,0.027945,-0.028196,-18.698732,-38.084522,-12.987503,,,,,,,
1508522294.133676,-0.209399,1.437132,2.056911,0.019275,0.086284,0.067485,-0.027702,-0.991080,-0.130356,-0.047523,0.016974,-0.048080,-18.761965,-38.041584,-13.022111,,,,,,,
,,,,,,,,,,,,,,,,42.293467,-71.263992,58.531975,-1.000000,-1.000000,1508522133.301057,
,,,,,,,,,,,,,,,,42.293467,-71.263992,58.531975,-1.000000,-1.000000,1508522142.301057,
1508522294.153659,-0.224049,1.437770,2.073705,0.074524,0.105595,0.129711,-0.029469,-0.991165,-0.129319,-0.049572,0.011520,-0.026687,-18.769188,-38.036503,-13.026543,,,,,,,
1508522294.173682,-0.246012,1.438818,2.099024,0.095732,0.200210,0.152317,-0.032048,-0.991304,-0.127633,-0.036799,0.022798,-0.002402,-18.860483,-37.995819,-13.013413,,,,,,,
1508522294.193704,-0.267498,1.440432,2.125250,0.141523,0.215031,0.144188,-0.034360,-0.991515,-0.125372,-0.020739,0.027846,-0.030420,-18.932714,-37.960209,-13.012438,,,,,,,
1508522294.233722,-0.320259,1.445644,2.181998,0.203445,0.010902,0.107279,-0.039297,-0.992179,-0.118479,0.175649,0.008780,-0.076620,-19.065296,-37.940590,-12.875362,,,,,,,
1508522294.253731,-0.348910,1.449741,2.209485,0.277023,-0.130507,0.084355,-0.041285,-0.992682,-0.113483,0.225473,0.021262,-0.089001,-19.169035,-37.962723,-12.654194,,,,,,,
1508522294.213703,-0.293407,1.442777,2.154199,0.174594,0.090718,0.143302,-0.036924,-0.991817,-0.122214,0.054777,0.015071,-0.057092,-18.979862,-37.948086,-12.979070,,,,,,,
1508522294.273722,-0.382626,1.454997,2.239293,0.323952,-0.225145,0.065505,-0.043138,-0.993303,-0.107185,0.228990,0.034608,-0.059288,-19.245144,-37.995007,-12.439962,,,,,,,
1508522294.293750,-0.421783,1.460749,2.275291,0.346237,-0.125248,0.079607,-0.044961,-0.993951,-0.100200,0.214944,0.058099,-0.024861,-19.323893,-38.035797,-12.190738,,,,,,,
1508522294.313760,-0.462953,1.466021,2.315344,0.321703,-0.031754,0.078410,-0.046706,-0.994516,-0.093575,0.071334,0.139551,0.076134,-19.417038,-38.088661,-11.873552,,,,,,,
1508522294.333742,-0.501406,1.471209,2.353958,0.321769,-0.006414,0.033711,-0.047789,-0.995045,-0.087185,-0.048021,-0.035137,0.072704,-19.508232,-38.160610,-11.486752,,,,,,,
1508522294.353779,-0.529292,1.476025,2.380409,0.223985,-0.121325,-0.032133,-0.047781,-0.995513,-0.081681,-0.067789,-0.116807,0.029344,-19.524134,-38.208294,-11.299697,,,,,,,
1508522294.373761,-0.542149,1.479331,2.389806,0.154823,-0.208405,-0.033834,-0.047128,-0.995820,-0.078240,-0.133154,-0.130279,-0.118797,-19.526068,-38.255436,-11.135658,,,,,,,
1508522294.393771,-0.569163,1.482561,2.410791,0.205968,-0.368757,-0.009044,-0.047491,-0.996110,-0.074229,-0.168635,-0.032638,-0.137120,-19.556543,-38.315235,-10.873489,,,,,,,
1508522294.413795,-0.600934,1.487078,2.433501,0.271071,-0.503881,-0.058652,-0.047280,-0.996498,-0.068971,-0.219306,0.070671,-0.041060,-19.626026,-38.367546,-10.559319,,,,,,,
1508522294.433790,-0.655782,1.492918,2.477507,0.385978,-0.557893,0.006140,-0.047440,-0.996969,-0.061661,-0.219436,0.085226,0.132889,-19.716587,-38.467033,-10.014603,,,,,,,
1508522294.453806,-0.761855,1.498855,2.574494,0.500686,-0.388644,0.120078,-0.049616,-0.997413,-0.052009,-0.168524,0.093193,0.109794,-19.857548,-38.530022,-9.479654,,,,,,,
1508522294.473833,-0.910370,1.504690,2.718645,0.597500,-0.153998,0.097630,-0.052168,-0.997816,-0.040524,-0.137651,0.078825,0.066616,-19.857548,-38.530022,-9.479654,,,,,,,
,,,,,,,,,,,,,,,,42.293680,-71.264972,58.531975,-1.000000,-1.000000,1508522294.396250,
1508522294.493843,-1.083939,1.510503,2.891403,0.608205,-0.012970,0.024358,-0.053255,-0.998183,-0.028191,-0.071547,-0.001573,-0.080406,-20.052185,-38.616066,-8.686648,,,,,,,
1508522294.513834,-1.251539,1.515438,3.060112,0.496541,0.072785,-0.076585,-0.052534,-0.998468,-0.017366,-0.044130,0.005365,-0.200804,-20.066191,-38.756596,-8.001437,,,,,,,
1508522294.533861,-1.390136,1.520523,-3.081748,0.387041,0.155285,-0.196678,-0.049434,-0.998737,-0.009029,-0.034458,0.001956,-0.256855,-20.066191,-38.756596,-8.001437,,,,,,,
,,,,,,,,,,,,,,,,42.293799,-71.265328,58.531975,-1.000000,-1.000000,1508522294.462209,
1508522294.553870,-1.507874,1.526211,-2.959929,0.272146,0.218825,-0.271045,-0.044482,-0.999006,-0.002803,0.045199,-0.063250,-0.408254,-19.748432,-39.020523,-7.493129,,,,,,,
1508522294.573877,-1.570861,1.532136,-2.891584,0.064528,0.292149,-0.296128,-0.038651,-0.999253,0.000002,0.101456,-0.101242,-0.529589,-19.556635,-39.129230,-7.429008,,,,,,,
1508522294.593889,-1.499302,1.537279,-2.957498,-0.217747,0.261754,-0.220755,-0.033426,-0.999438,-0.002394,0.093469,-0.101972,-0.587435,-19.351643,-39.222076,-7.476069,,,,,,,
1508522294.613899,-1.237355,1.537475,3.067905,-0.557729,0.196791,-0.014920,-0.031480,-0.999445,-0.010904,-0.019606,-0.158300,-0.722296,-19.073673,-39.269993,-7.925367,,,,,,,
1508522294.633896,-0.868742,1.527176,2.703733,-1.042511,0.267737,0.149361,-0.033294,-0.999049,-0.028161,-0.171448,-0.180425,-0.558372,-19.067570,-39.178291,-8.380816,,,,,,,
1508522294.653907,-0.601786,1.505339,2.441738,-1.397163,0.240513,0.209233,-0.037030,-0.997858,-0.053920,-0.186938,-0.165105,-0.414708,-19.145113,-38.924107,-9.334194,,,,,,,
1508522294.673927,-0.417783,1.475940,2.258338,-1.850129,-0.080983,-0.051352,-0.038429,-0.995505,-0.086567,-0.125329,-0.205835,-0.240764,-19.252474,-38.475979,-10.848498,,,,,,,
,,,,,,,,,,,,,,,,42.293396,-71.263855,58.112663,-1.000000,-1.000000,1508522294.631759,
1508522294.693930,-0.265462,1.440242,2.102919,-1.889085,-0.068044,-0.306138,-0.034154,-0.991490,-0.125624,0.038000,-0.160259,0.481199,-19.196882,-38.180481,-11.936476,,,,,,,
1508522294.713931,-0.160979,1.411724,1.998754,-1.376787,0.246573,-0.484807,-0.025389,-0.987375,-0.156355,0.254927,-0.120505,0.532880,-22.589426,-37.246349,-10.632141,,,,,,,
1508522294.733930,-0.079155,1.384720,1.937189,-1.482302,1.662580,-0.220551,-0.014629,-0.982738,-0.184425,0.053981,-0.326451,0.281425,-21.935244,-37.040928,-12.547126,,,,,,,
,,,,,,,,,,,,,,,,42.293396,-71.263855,58.102089,-1.000000,-1.000000,1508522294.697321,
1508522294.753947,-0.034798,1.353805,1.937116,-1.520643,2.202813,0.239511,-0.007490,-0.976550,-0.215162,-0.030443,-0.246992,0.069944,-21.487040,-36.766090,-14.041977,,,,,,,
1508522294.773963,-0.019836,1.325846,1.950429,-1.330132,0.806233,0.074992,-0.004810,-0.970149,-0.242461,-0.025860,0.002803,-0.118593,-21.129366,-36.358414,-15.563776,,,,,,,
1508522294.793958,-0.010996,1.298754,1.940020,-1.384401,-0.471579,-0.187285,-0.002955,-0.963224,-0.268683,0.209726,0.057401,0.080557,-20.886389,-35.866203,-16.970255,,,,,,,
1508522294.813978,-0.010566,1.272176,1.924775,-1.258634,-0.732972,-0.185380,-0.003108,-0.955743,-0.294185,0.304942,0.039148,0.203670,-20.944592,-35.258083,-18.133034,,,,,,,
1508522294.834000,-0.016807,1.250599,1.917614,-1.003441,-0.572162,-0.033022,-0.005290,-0.949173,-0.314709,0.288661,0.031495,0.246701,-20.944592,-35.258083,-18.133034,,,,,,,
1508522294.854011,-0.025104,1.230332,1.917643,-1.038829,-0.322241,0.039277,-0.008382,-0.942600,-0.333819,0.109334,-0.036068,0.235355,-20.282295,-32.592499,-20.559919,,,,,,,
1508522294.874013,-0.029672,1.208015,1.917655,-1.164512,-0.189431,0.025563,-0.010528,-0.934913,-0.354720,-0.033539,-0.043495,0.129149,-20.386965,-32.248302,-20.994556,,,,,,,
1508522294.894028,-0.030644,1.183889,1.914980,-1.214392,-0.170588,-0.062122,-0.011561,-0.926080,-0.377149,-0.090215,-0.029883,0.134458,-20.459455,-31.870571,-21.494886,,,,,,,
1508522294.914039,-0.020711,1.159800,1.899937,-1.221239,-0.238656,-0.389106,-0.008274,-0.916723,-0.399437,0.157871,0.088324,0.219383,-20.462603,-31.145468,-22.529854,,,,,,,
1508522294.934031,-0.003154,1.133263,1.872779,-1.413490,-0.428397,-0.602721,-0.001337,-0.905800,-0.423704,0.349512,0.078148,0.180631,-20.346558,-30.856014,-23.027737,,,,,,,
1508522294.954047,0.011673,1.104173,1.846355,-1.423157,-0.433528,-0.552762,0.005251,-0.893093,-0.449842,0.330045,0.057231,0.116117,-20.182695,-30.431395,-23.726393,,,,,,,
1508522294.974067,0.020853,1.079564,1.825199,-1.081424,-0.532305,-0.495713,0.009836,-0.881752,-0.471611,0.170050,0.085640,0.094932,-20.054628,-29.892237,-24.507528,,,,,,,
1508522294.994059,0.024300,1.061334,1.804758,-0.809709,-0.880954,-0.512900,0.011850,-0.873007,-0.487564,0.045767,0.130270,0.143509,-20.049261,-29.673126,-24.776714,,,,,,,
1508522295.014084,0.016721,1.047104,1.787127,-0.642532,-1.280102,-0.405347,0.008361,-0.865979,-0.500011,0.013108,0.131375,0.152339,-20.220098,-29.481171,-24.866865,,,,,,,
1508522295.034094,0.000954,1.035305,1.773179,-0.570181,-1.424370,-0.334586,0.000487,-0.860018,-0.510263,-0.007155,0.070482,0.132334,-20.755358,-29.295267,-24.644581,,,,,,,
1508522295.054105,-0.016468,1.024096,1.761264,-0.564994,-1.326462,-0.284426,-0.008561,-0.854245,-0.519801,-0.065658,0.033078,0.128321,-21.260748,-29.151016,-24.383430,,,,,,,
1508522295.074104,-0.033051,1.012734,1.751245,-0.579000,-1.222122,-0.220578,-0.017499,-0.848283,-0.529255,-0.094058,0.042573,0.123996,-21.260748,-29.151016,-24.383430,,,,,,,
1508522295.094098,-0.050426,1.001756,1.743315,-0.537562,-1.196498,-0.177627,-0.027159,-0.842418,-0.538139,-0.162859,0.125759,0.056098,-21.961704,-28.894554,-24.065350,,,,,,,
1508522295.114105,-0.067570,0.992139,1.736593,-0.461043,-1.074207,-0.131119,-0.036926,-0.837198,-0.545652,-0.158432,0.158426,0.009489,-22.659363,-28.633070,-23.728745,,,,,,,
1508522295.134132,-0.081268,0.984696,1.732403,-0.325050,-0.717103,-0.064777,-0.044901,-0.833104,-0.551291,-0.149664,0.163106,-0.024698,-22.659363,-28.633070,-23.728745,,,,,,,
1508522295.154149,-0.088995,0.980479,1.729642,-0.154846,-0.386827,-0.070575,-0.049471,-0.830764,-0.554422,-0.103040,0.199279,-0.079947,-23.290272,-28.389715,-23.408117,,,,,,,
1508522295.174140,-0.089261,0.979135,1.724597,-0.030213,-0.129119,-0.176891,-0.049719,-0.830015,-0.555520,-0.046152,0.251692,-0.012504,-23.362110,-28.378668,-23.349857,,,,,,,
1508522295.194168,-0.080117,0.981042,1.714938,0.134946,0.184683,-0.337131,-0.044510,-0.831077,-0.554373,0.023423,0.278023,0.042318,-23.292797,-28.467085,-23.311441,,,,,,,
1508522295.214178,-0.058438,0.986219,1.699970,0.274457,0.643021,-0.484697,-0.032230,-0.833945,-0.550905,0.080326,0.243308,0.041704,-23.170053,-28.567411,-23.311033,,,,,,,
1508522295.234170,-0.021412,0.992067,1.679802,0.239245,1.227949,-0.609120,-0.011710,-0.837158,-0.546835,0.111213,0.175369,-0.027277,-22.350300,-29.059788,-23.502033,,,,,,,
1508522295.254196,0.027506,0.995767,1.655848,0.193426,1.503974,-0.667851,0.014957,-0.839176,-0.543654,0.095989,0.134083,-0.014421,-21.384493,-29.435947,-23.928667,,,,,,,
1508522295.274205,0.078560,1.000720,1.630335,0.327636,1.445431,-0.680629,0.042355,-0.841860,-0.538032,0.134815,0.113466,-0.027215,-19.981962,-29.925560,-24.526207,,,,,,,
1508522295.294203,0.128635,1.006553,1.603102,0.402281,1.277485,-0.697176,0.068602,-0.844993,-0.530359,0.175295,0.044166,-0.085776,-19.146656,-30.253405,-24.788902,,,,,,,
1508522295.314223,0.169941,1.014880,1.577290,0.588623,0.724441,-0.545927,0.089250,-0.849417,-0.520120,0.161970,0.039527,-0.108268,-18.356951,-30.599308,-24.961117,,,,,,,
1508522295.334233,0.196059,1.027088,1.555351,0.771760,0.235098,-0.406368,0.100775,-0.855796,-0.507402,0.188409,0.090598,-0.088087,-17.599182,-31.085644,-24.905910,,,,,,,
1508522295.354246,0.217541,1.042875,1.535269,0.934489,0.227939,-0.302815,0.108722,-0.863856,-0.491867,0.069089,0.148173,-0.011902,-17.114197,-31.738293,-24.415928,,,,,,,
1508522295.374252,0.239332,1.060446,1.515500,0.965316,0.231207,-0.274875,0.115797,-0.872574,-0.474559,-0.064893,0.194870,0.173732,-16.886477,-32.154861,-24.026331,,,,,,,
1508522295.394262,0.262671,1.077716,1.494339,0.959999,0.251361,-0.284486,0.122908,-0.880879,-0.457106,-0.088317,0.063725,0.226377,-16.451618,-32.977261,-23.199078,,,,,,,
1508522295.414244,0.291253,1.093318,1.472196,0.824566,0.644523,-0.276789,0.131959,-0.888157,-0.440187,0.004150,-0.015972,0.087053,-16.203503,-33.372108,-22.805733,,,,,,,
1508522295.434272,0.331333,1.104076,1.451860,0.549546,1.344676,-0.296630,0.146373,-0.893049,-0.425486,0.034764,0.009199,0.012553,-15.682739,-33.816208,-22.513741,,,,,,,
1508522295.454262,0.378847,1.111293,1.432155,0.509973,1.506365,-0.241468,0.164030,-0.896273,-0.412055,-0.005506,0.067598,-0.104287,-14.640182,-34.223713,-22.599892,,,,,,,
1508522295.474284,0.419377,1.122623,1.416471,0.756771,1.136300,-0.007596,0.176445,-0.901240,-0.395770,0.061257,0.056376,-0.119626,-13.894430,-34.536350,-22.595089,,,,,,,
1508522295.494307,0.446051,1.140115,1.403087,0.996380,0.485532,0.154666,0.180108,-0.908682,-0.376642,0.141196,0.056097,-0.067008,-13.894430,-34.536350,-22.595089,,,,,,,
1508522295.514318,0.466494,1.158225,1.380226,0.952711,-0.326293,-0.213645,0.180338,-0.916093,-0.358123,0.623404,-0.256057,-0.172944,-13.512224,-35.332592,-21.572680,,,,,,,
1508522295.534312,0.490763,1.151469,1.350224,-0.904242,0.101381,-0.924993,0.191887,-0.913363,-0.359092,1.034965,-1.340558,-1.149056,-13.400275,-35.633694,-21.142975,,,,,,,
1508522295.554335,0.475614,1.132182,1.362443,-0.371728,-0.637811,0.423616,0.194457,-0.905341,-0.377550,0.256105,-1.022531,-0.229505,-12.841446,-35.430351,-21.820637,,,,,,,
1508522295.574345,0.418818,1.148220,1.395220,0.577485,-1.852385,1.080027,0.166784,-0.912035,-0.374666,-0.146307,-0.007261,0.062486,-13.888821,-35.198051,-21.553432,,,,,,,
1508522295.594339,0.321832,1.166179,1.438174,0.406677,-3.392368,1.167956,0.124519,-0.919253,-0.373455,-0.074516,0.432849,0.408642,-15.194109,-35.143143,-20.747316,,,,,,,
1508522295.614364,0.216022,1.173579,1.479486,0.137161,-3.113909,0.556908,0.082920,-0.922141,-0.377863,-0.086155,0.630545,0.579187,-17.336346,-34.911507,-19.416245,,,,,,,
1508522295.634373,0.177409,1.187567,1.472230,1.098299,-1.753218,-0.252918,0.065989,-0.927462,-0.368049,-0.422556,0.402926,0.697593,-18.907223,-34.946735,-17.821201,,,,,,,
1508522295.654381,0.181626,1.215117,1.445037,1.540461,-0.671535,-0.120681,0.062900,-0.937410,-0.342500,-0.818531,-0.062178,0.658616,-19.136175,-35.358406,-16.731491,,,,,,,
1508522295.674391,0.178257,1.242355,1.443547,1.081427,-0.008796,0.372202,0.057196,-0.946546,-0.317457,-0.919699,-0.352801,0.450727,-19.246067,-35.761185,-15.718752,,,,,,,
1508522295.694401,0.179775,1.252612,1.451010,0.264989,0.728773,0.033821,0.055939,-0.949805,-0.307801,-0.402435,-0.360543,0.275116,-19.490997,-35.998119,-14.852245,,,,,,,
1508522295.714410,0.213654,1.259592,1.438319,0.490795,1.243210,-0.158775,0.064925,-0.951965,-0.299243,-0.047530,-0.033295,0.245059,-19.279253,-36.100590,-14.879873,,,,,,,
1508522295.734408,0.253945,1.271098,1.420103,0.684608,1.005326,-0.107312,0.074170,-0.955426,-0.285764,0.104541,0.077526,0.092359,-18.804869,-36.312756,-14.970419,,,,,,,
1508522295.754407,0.284800,1.284610,1.404037,0.717614,0.634927,-0.000845,0.079315,-0.959327,-0.270924,0.114517,0.065071,0.031224,-18.389284,-36.609108,-14.763474,,,,,,,
1508522295.774418,0.300630,1.299480,1.395985,0.764325,0.279652,0.179214,0.079361,-0.963419,-0.255980,-0.078354,0.036325,0.024016,-18.292948,-36.757519,-14.512264,,,,,,,
1508522295.794441,0.302227,1.315738,1.396705,0.767475,0.023975,0.278068,0.075097,-0.967649,-0.240866,-0.099831,0.071393,0.024130,-18.329504,-36.873150,-14.168729,,,,,,,
1508522295.814435,0.296606,1.332534,1.401739,0.812180,-0.059859,0.310316,0.068981,-0.971750,-0.225708,-0.050747,0.088357,0.041932,-18.632751,-37.035408,-13.324847,,,,,,,
1508522295.834452,0.294880,1.351088,1.400730,0.930593,-0.202584,0.221747,0.063340,-0.975961,-0.208538,-0.007295,-0.012198,0.079021,-18.867598,-37.153458,-12.648598,,,,,,,
1508522295.854475,0.296545,1.369777,1.392431,0.891350,-0.375856,0.184026,0.058347,-0.979864,-0.190953,-0.005429,-0.045039,0.057561,-18.867598,-37.153458,-12.648598,,,,,,,
1508522295.874476,0.294145,1.387384,1.386117,0.849825,-0.475593,0.212356,0.052878,-0.983227,-0.174553,-0.118445,-0.022907,0.058982,-19.319885,-37.431301,-11.045017,,,,,,,
1508522295.894480,0.284739,1.404597,1.384942,0.807197,-0.524312,0.248168,0.046472,-0.986221,-0.158774,-0.099466,0.010223,0.063560,-19.385691,-37.457260,-10.839809,,,,,,,
1508522295.914503,0.273692,1.420707,1.387459,0.752880,-0.350143,0.223382,0.040415,-0.988758,-0.143961,-0.071772,0.026233,0.044306,-19.813477,-37.564964,-9.625599,,,,,,,
1508522295.934513,0.273062,1.436242,1.383320,0.764613,-0.172958,0.160793,0.036177,-0.990961,-0.129179,-0.158095,0.008753,0.055494,-20.077301,-37.635830,-8.763511,,,,,,,
1508522295.954515,0.281245,1.452133,1.373414,0.790089,-0.025299,0.163244,0.032858,-0.992968,-0.113734,-0.211950,0.022463,0.052348,-20.183422,-37.687202,-8.285944,,,,,,,
1508522295.974531,0.294802,1.467924,1.362591,0.745230,0.273221,0.157776,0.029837,-0.994713,-0.098261,-0.156302,0.021080,0.004816,-20.307013,-37.746323,-7.693708,,,,,,,
1508522295.994541,0.329677,1.481576,1.338064,0.663252,0.635142,0.049834,0.028846,-0.996023,-0.084303,-0.122031,0.011159,0.012511,-20.362577,-37.812237,-7.207847,,,,,,,
1508522296.014534,0.404435,1.493739,1.276566,0.658089,0.679398,-0.054520,0.030292,-0.997033,-0.070771,-0.021182,-0.003624,0.056244,-20.273125,-37.903469,-6.977109,,,,,,,
1508522296.034559,0.518052,1.505139,1.176341,0.674077,0.682540,-0.065033,0.032489,-0.997845,-0.057001,0.014966,0.015057,0.022577,-20.167284,-37.990944,-6.806002,,,,,,,
1508522296.054569,0.677104,1.516148,1.030700,0.732587,0.670937,-0.032617,0.034222,-0.998507,-0.042571,0.063983,0.013140,-0.017792,-19.993900,-38.135666,-6.501342,,,,,,,
1508522296.074564,0.925661,1.527318,0.794909,0.837948,0.634896,0.005492,0.034729,-0.999055,-0.026136,0.077499,0.031144,-0.054339,-19.920118,-38.213783,-6.264842,,,,,,,
1508522296.094589,1.363283,1.535151,0.368798,0.968967,0.569980,-0.007318,0.034873,-0.999365,-0.007342,0.074853,0.036337,-0.081784,-19.864922,-38.289406,-5.971510,,,,,,,
1508522296.114576,1.907633,1.533114,-0.164321,0.941329,0.599620,-0.041595,0.035556,-0.999290,0.012451,0.140683,0.065910,-0.127335,-19.749275,-38.459759,-5.212080,,,,,,,
1508522296.134585,2.274017,1.524370,-0.518726,0.825183,0.600920,0.008555,0.035400,-0.998922,0.030012,0.142121,0.097860,-0.186537,-19.688511,-38.535435,-4.871925,,,,,,,
1508522296.154609,2.496949,1.511176,-0.732720,0.888279,0.348813,-0.077359,0.035805,-0.998223,0.047627,0.072776,0.074563,-0.186131,-19.648680,-38.593235,-4.565547,,,,,,,
1508522296.174626,2.616480,1.495233,-0.848866,0.875687,0.106481,-0.113848,0.037845,-0.997146,0.065320,0.048185,0.052627,-0.136853,-19.566322,-38.693645,-4.039002,,,,,,,
1508522296.194620,2.704526,1.477873,-0.935708,0.986324,0.069471,-0.048013,0.039276,-0.995686,0.084067,0.003845,0.054478,-0.191779,-19.435486,-38.849072,-3.060117,,,,,,,
1508522296.214633,2.785820,1.458886,-1.016279,1.046857,0.049592,0.048299,0.038899,-0.993745,0.104684,-0.023259,0.055894,-0.230096,-19.435486,-38.849072,-3.060117,,,,,,,
1508522296.234654,2.853648,1.439686,-1.082471,1.024385,0.159140,0.081203,0.037126,-0.991417,0.125352,0.007368,-0.011039,-0.408021,-19.445377,-38.918343,-1.895400,,,,,,,
1508522296.254648,2.900119,1.421642,-1.124591,0.861536,0.286463,0.011812,0.035536,-0.988897,0.144290,0.001345,-0.126261,-0.594501,-19.513546,-38.918049,-0.979661,,,,,,,
1508522296.274671,2.918180,1.409963,-1.135359,0.403772,0.416025,-0.069595,0.035481,-0.987094,0.156161,-0.024555,-0.192502,-0.649172,-19.515736,-38.925171,-0.565372,,,,,,,
1508522296.294681,2.918621,1.408537,-1.127690,-0.123193,0.334419,-0.094237,0.035723,-0.986865,0.157549,-0.041964,-0.147702,-0.555498,-19.432529,-38.968559,-0.425375,,,,,,,
1508522296.314687,2.892765,1.412092,-1.102389,-0.218520,-0.348927,-0.184979,0.038920,-0.987433,0.153171,0.022710,-0.071573,-0.339222,-19.360359,-39.002274,-0.593135,,,,,,,
1508522296.334699,2.843225,1.412450,-1.069770,0.003533,-1.118575,-0.299785,0.046353,-0.987489,0.150718,0.136096,-0.073378,-0.200844,-19.215197,-39.074459,-0.561767,,,,,,,
1508522296.354685,2.766146,1.408557,-1.017816,0.001923,-1.319131,-0.539518,0.059231,-0.986868,0.150278,0.223469,-0.432367,-0.230371,-18.863789,-39.249321,0.028860,,,,,,,
1508522296.374707,2.676008,1.411251,-0.950248,-0.617278,-1.025788,-0.289933,0.071324,-0.987300,0.141959,0.047954,-0.857900,-0.013938,-18.464781,-39.437107,0.345335,,,,,,,
1508522296.394728,2.598100,1.432165,-0.885124,-1.442685,-0.484703,0.294596,0.071461,-0.990406,0.118276,-0.035892,-0.614941,0.083552,-18.378944,-39.478580,0.094285,,,,,,,
1508522296.414739,2.476769,1.464316,-0.770011,-1.822788,-0.344437,0.247910,0.065566,-0.994336,0.083645,-0.089248,-0.057315,0.102894,-18.688261,-39.313786,-1.236036,,,,,,,
1508522296.434733,2.199207,1.489847,-0.501474,-1.712464,-0.606877,-0.051636,0.065413,-0.996725,0.047535,-0.076186,0.163107,0.130230,-18.790663,-39.223042,-2.194618,,,,,,,
1508522296.454749,1.805561,1.501683,-0.121381,-1.432348,-0.765331,-0.056897,0.067164,-0.997613,0.016064,-0.068721,0.130120,0.336765,-18.789925,-39.168056,-3.025724,,,,,,,
1508522296.474744,1.383807,1.501385,0.287618,-1.417563,-0.578311,-0.040662,0.068147,-0.997592,-0.012893,-0.149155,-0.099637,0.483673,-18.804220,-39.040848,-4.308857,,,,,,,
1508522296.494774,1.019571,1.491898,0.648342,-1.377699,0.034152,0.125166,0.067143,-0.996889,-0.041279,-0.216831,-0.145399,0.488590,-18.826353,-38.946041,-5.012693,,,,,,,
1508522296.514777,0.753527,1.479449,0.925600,-1.249590,0.782668,0.325896,0.062414,-0.995831,-0.066525,-0.324133,-0.038608,0.370053,-18.896843,-38.798416,-5.826229,,,,,,,
1508522296.534793,0.580212,1.465717,1.122252,-1.050737,1.296728,0.324732,0.057498,-0.994484,-0.087721,-0.376682,0.190606,0.191892,-19.088343,-38.372501,-7.716154,,,,,,,
1508522296.554801,0.488559,1.452476,1.245847,-0.851610,1.701990,0.197848,0.055405,-0.993008,-0.104234,-0.345093,0.193417,0.206911,-19.089111,-38.163372,-8.689970,,,,,,,
1508522296.574805,0.458790,1.438721,1.312978,-0.790630,1.901958,-0.025093,0.058322,-0.991291,-0.118074,-0.150057,0.116947,0.237825,-18.894571,-37.942070,-9.987358,,,,,,,
1508522296.594822,0.462225,1.423001,1.349239,-0.830910,2.001379,-0.156314,0.065668,-0.989098,-0.131805,-0.057795,0.057534,0.253006,-18.310825,-37.755211,-11.645191,,,,,,,
1508522296.614817,0.471168,1.406667,1.382102,-0.850204,2.112018,-0.114865,0.074169,-0.986561,-0.145590,-0.010051,0.026264,0.213156,-17.853357,-37.644474,-12.669016,,,,,,,
1508522296.634839,0.475082,1.390701,1.422030,-0.872757,2.183522,-0.024494,0.081933,-0.983827,-0.159286,-0.034524,0.005769,0.143814,-17.208103,-37.452374,-14.055380,,,,,,,
1508522296.654828,0.474906,1.375806,1.466964,-0.839911,2.198685,0.063098,0.088596,-0.981050,-0.172315,-0.062931,-0.010009,0.107083,-16.389410,-37.131012,-15.780622,,,,,,,
1508522296.674845,0.472439,1.361436,1.514087,-0.879356,2.157415,0.103202,0.094577,-0.978164,-0.185068,-0.058108,-0.036820,0.106394,-15.895397,-36.906914,-16.780012,,,,,,,
1508522296.694867,0.467082,1.345656,1.560264,-0.952601,1.849241,0.064033,0.100523,-0.974763,-0.199331,-0.044065,-0.028838,0.115316,-15.394423,-36.654984,-17.770103,,,,,,,
1508522296.714786,0.460505,1.328776,1.598699,-0.942650,1.349704,-0.003341,0.106507,-0.970856,-0.214698,0.088271,0.085312,0.092857,-14.459844,-36.098606,-19.599911,,,,,,,
1508522296.734795,0.451663,1.311928,1.630416,-0.917937,0.969309,-0.022590,0.111729,-0.966680,-0.230317,0.157589,0.146139,0.120210,-14.082947,-35.819641,-20.370975,,,,,,,
1508522296.754804,0.441849,1.296255,1.657935,-0.809264,0.769596,-0.004808,0.115928,-0.962550,-0.245070,0.179497,0.167322,0.116453,-13.676047,-35.446312,-21.280914,,,,,,,
1508522296.774817,0.434826,1.284211,1.678807,-0.578152,0.575137,0.015053,0.119079,-0.959215,-0.256373,0.141724,0.158739,0.063990,-13.282448,-35.038372,-22.186523,,,,,,,
1508522296.794823,0.428561,1.276478,1.694001,-0.368321,0.314864,0.046401,0.120550,-0.957000,-0.263854,0.116648,0.143371,0.065367,-13.122666,-34.858528,-22.561722,,,,,,,
1508522296.814827,0.421990,1.270770,1.705871,-0.345884,0.241470,0.023106,0.121049,-0.955329,-0.269619,0.076171,0.092200,0.027355,-13.038105,-34.722828,-22.818542,,,,,,,
1508522296.834822,0.419310,1.262697,1.715661,-0.478904,0.383603,-0.059869,0.123462,-0.952912,-0.276978,0.006284,0.013352,-0.054077,-12.856909,-34.463055,-23.309875,,,,,,,
1508522296.854852,0.419345,1.252751,1.724512,-0.518288,0.450461,-0.085698,0.127324,-0.949848,-0.285616,-0.022252,0.008381,-0.061613,-12.680510,-34.301540,-23.642370,,,,,,,
1508522296.874861,0.423914,1.241113,1.733367,-0.644028,0.810499,-0.131183,0.133166,-0.946145,-0.295087,-0.064898,-0.023719,-0.087267,-12.384939,-34.069252,-24.129904,,,,,,,
1508522296.894870,0.437418,1.227946,1.740978,-0.623856,1.115272,-0.163775,0.142404,-0.941800,-0.304522,-0.066003,0.076245,-0.076475,-11.706514,-33.716621,-24.949945,,,,,,,
1508522296.914880,0.453112,1.216350,1.747882,-0.556818,1.098338,-0.135551,0.151936,-0.937839,-0.312048,-0.064045,0.102268,-0.094568,-11.206352,-33.516277,-25.444637,,,,,,,
1508522296.934888,0.471449,1.205255,1.754295,-0.545189,1.319242,-0.151260,0.162348,-0.933930,-0.318461,-0.040873,0.066163,-0.111944,-10.533632,-33.261181,-26.059338,,,,,,,
1508522296.954899,0.492399,1.193906,1.761892,-0.599577,1.406467,-0.127153,0.173984,-0.929813,-0.324310,-0.033618,0.065159,-0.144959,-9.940500,-33.068954,-26.532688,,,,,,,
1508522296.974894,0.507358,1.181971,1.775313,-0.634857,1.340974,-0.026343,0.184194,-0.925355,-0.331347,0.011683,0.071900,-0.038740,-8.702414,-32.604584,-27.523838,,,,,,,
1508522296.994917,0.521840,1.173339,1.787773,-0.396369,1.283571,-0.000994,0.192948,-0.922048,-0.335557,0.023681,0.087392,0.030656,-8.146139,-32.362949,-27.975571,,,,,,,
1508522297.014928,0.537644,1.167946,1.796155,-0.291961,1.083871,0.019947,0.200770,-0.919947,-0.336732,0.049184,0.128932,0.037171,-1.179520,-32.514473,-29.782043,,,,,,,
1508522297.034922,0.546396,1.163894,1.807099,-0.274985,0.871728,0.114689,0.205645,-0.918351,-0.338144,0.040815,0.164659,0.024652,-0.743514,-32.383522,-29.938385,,,,,,,
1508522297.054945,0.551378,1.161205,1.819756,-0.226050,0.820849,0.154450,0.208620,-0.917284,-0.339218,0.004210,0.162126,0.044815,-0.403652,-32.259071,-30.078922,,,,,,,
1508522297.074955,0.558041,1.159709,1.831380,-0.161154,0.905823,0.160374,0.211602,-0.916687,-0.338984,-0.071404,0.130630,0.065699,0.208339,-32.062363,-30.290491,,,,,,,
1508522297.094964,0.567616,1.159024,1.843636,-0.176282,1.148244,0.217928,0.215175,-0.916413,-0.337471,-0.091869,0.095673,-0.011177,0.560012,-31.992886,-30.359409,,,,,,,
1508522297.114974,0.578279,1.158425,1.862433,-0.255517,1.556701,0.354935,0.219061,-0.916173,-0.335617,-0.148260,0.055242,-0.069198,1.138320,-31.882183,-30.459528,,,,,,,
1508522297.134962,0.590703,1.159403,1.887587,-0.196297,1.862066,0.499396,0.222715,-0.916565,-0.332125,-0.178129,0.060257,-0.018094,2.083637,-31.707205,-30.591890,,,,,,,
1508522297.154995,0.605590,1.165121,1.911815,0.071886,1.812311,0.589945,0.224647,-0.918836,-0.324460,-0.067406,0.026166,-0.013263,2.693759,-31.663342,-30.589684,,,,,,,
1508522297.174995,0.619704,1.176452,1.933139,0.307073,1.599116,0.720560,0.223143,-0.923249,-0.312760,-0.002714,-0.021957,-0.027495,3.241866,-31.722229,-30.475281,,,,,,,
1508522297.194990,0.627747,1.192695,1.956164,0.442110,1.406266,0.882305,0.216814,-0.929367,-0.298778,0.128523,-0.029251,0.038661,3.958606,-32.096886,-29.994528,,,,,,,
1508522297.215006,0.630558,1.210882,1.982123,0.460181,1.333087,0.919665,0.207652,-0.935927,-0.284466,0.173375,0.003325,0.058270,4.140830,-32.354210,-29.691933,,,,,,,
1508522297.235030,0.632883,1.229336,2.007434,0.525285,1.243599,0.857315,0.198062,-0.942267,-0.270009,0.174634,-0.030939,0.077519,4.331231,-32.705170,-29.277370,,,,,,,
1508522297.255040,0.632559,1.243246,2.026143,0.116285,0.618994,0.505295,0.190207,-0.946833,-0.259477,0.189111,-1.019933,-0.397033,4.477111,-33.142113,-28.759483,,,,,,,
1508522297.275026,0.613526,1.240283,2.058972,-0.496800,0.733519,0.353386,0.186848,-0.945876,-0.265342,0.314784,-1.254930,-0.370324,4.515670,-33.092499,-28.810547,,,,,,,
1508522297.295058,0.599201,1.249107,2.087706,0.452493,0.270165,0.749503,0.178314,-0.948703,-0.261088,0.383316,-0.110410,-0.052358,4.668348,-32.934566,-28.966755,,,,,,,
1508522297.315068,0.567107,1.266894,2.110086,0.479674,-0.967353,0.781799,0.160753,-0.954176,-0.252402,0.369474,0.532835,0.339117,4.416778,-33.168667,-28.738197,,,,,,,
1508522297.335063,0.495526,1.281238,2.146908,0.366329,-2.301413,0.829898,0.135767,-0.958370,-0.251185,0.236105,0.941387,0.825617,3.038947,-33.578987,-28.438858,,,,,,,
1508522297.355086,0.447663,1.303085,2.154729,1.376067,-1.439850,0.378914,0.114502,-0.964379,-0.238459,-0.136688,0.959359,0.851343,1.235872,-33.888031,-28.206844,,,,,,,
1508522297.375096,0.520235,1.340718,2.079327,2.403281,0.711334,-0.083726,0.113362,-0.973648,-0.197883,-0.728047,0.331818,0.400367,0.445633,-35.048546,-26.775978,,,,,,,
1508522297.395091,0.650895,1.376827,1.973143,1.635631,1.604210,0.251331,0.116790,-0.981247,-0.153345,-1.171523,-0.775681,0.178186,0.871215,-35.986755,-25.490122,,,,,,,
1508522297.415115,0.678379,1.391289,1.975505,0.034193,1.167929,0.409206,0.112043,-0.983932,-0.139014,-1.049161,-1.094285,0.161993,1.437726,-36.689644,-24.440849,,,,,,,
1508522297.435124,0.690285,1.386895,1.978065,-0.184739,0.652512,-0.284010,0.116441,-0.983138,-0.141002,-0.366395,-0.210145,0.067103,1.659652,-36.725391,-24.373005,,,,,,,
1508522297.455119,0.681607,1.391572,2.005109,0.250870,1.190105,0.707010,0.112315,-0.983982,-0.138435,0.029591,0.309300,0.093788,2.181680,-36.620941,-24.488750,,,,,,,
1508522297.475138,0.698122,1.411253,2.016506,0.870562,1.372297,0.649443,0.102117,-0.987300,-0.121700,0.077693,0.362590,0.108746,2.284381,-36.825794,-24.170122,,,,,,,
1508522297.495130,0.748568,1.432044,1.991362,0.889060,1.210179,0.468467,0.094131,-0.990389,-0.101333,0.119172,0.062975,0.073608,2.511485,-37.382664,-23.276192,,,,,,,
1508522297.515147,0.822134,1.448774,1.936569,0.824668,0.759122,0.279134,0.089172,-0.992565,-0.082850,0.124909,0.020671,0.021814,2.669689,-37.698326,-22.743382,,,,,,,
1508522297.535164,0.915409,1.463255,1.850573,0.862318,0.182066,0.224707,0.085096,-0.994223,-0.065417,0.131548,0.049597,-0.017210,2.765760,-37.989124,-22.242504,,,,,,,
1508522297.555181,1.031378,1.477373,1.731973,0.895453,-0.234226,0.270449,0.080041,-0.995639,-0.047916,0.050849,0.073551,0.010684,2.582859,-38.573479,-21.235998,,,,,,,
1508522297.575190,1.174775,1.490826,1.583071,0.853807,-0.193634,0.327633,0.073703,-0.996804,-0.030816,0.001172,0.043130,0.009148,2.334414,-38.864986,-20.727169,,,,,,,
1508522297.595199,1.357573,1.502877,1.400850,0.817280,0.216688,0.396850,0.066330,-0.997694,-0.014361,-0.155396,-0.084734,0.056613,2.014560,-39.224480,-20.073217,,,,,,,
1508522297.615209,1.614758,1.512277,1.151714,0.808643,0.513024,0.379967,0.058429,-0.998288,0.002570,-0.360324,-0.108981,0.141793,1.770943,-39.647232,-19.248713,,,,,,,
1508522297.635191,1.901778,1.515551,0.875930,0.707629,0.618932,0.271674,0.052220,-0.998474,0.017944,-0.328999,-0.013611,0.135102,1.718889,-39.877975,-18.770845,,,,,,,
1508522297.655226,2.214652,1.513498,0.576595,0.882060,0.763546,0.337108,0.045802,-0.998359,0.034377,-0.120631,0.169822,0.079424,1.729225,-40.154739,-18.170267,,,,,,,
1508522297.675236,2.557518,1.502960,0.251104,1.158684,0.978197,0.395985,0.037378,-0.997700,0.056547,-0.049982,0.137989,-0.006147,1.732481,-40.596142,-17.161118,,,,,,,
1508522297.695231,2.805254,1.485594,0.023670,1.120327,1.069540,0.385090,0.028086,-0.996372,0.080331,-0.024896,-0.035701,-0.100763,1.735342,-40.698330,-16.917049,,,,,,,
1508522297.715255,2.953073,1.468424,-0.103676,0.886202,1.023791,0.329885,0.019152,-0.994765,0.100383,0.021879,-0.195345,-0.122264,1.773471,-41.263119,-15.484247,,,,,,,
1508522297.735265,3.043923,1.455564,-0.175573,0.575422,0.932433,0.283597,0.011212,-0.993368,0.114430,0.100803,-0.132151,-0.140019,1.814077,-41.530117,-14.748243,,,,,,,
1508522297.755259,3.111671,1.446528,-0.226164,0.439225,0.846363,0.256853,0.003708,-0.992289,0.123893,0.115188,-0.003500,-0.192008,1.844839,-41.701126,-14.253592,,,,,,,
1508522297.775284,-3.120405,1.437720,-0.262334,0.446829,0.682622,0.217397,-0.002811,-0.991158,0.132654,0.089908,0.062066,-0.192026,1.868701,-41.834583,-13.853802,,,,,,,
1508522297.795295,-3.081665,1.428430,-0.291373,0.457621,0.383050,0.220454,-0.008498,-0.989883,0.141632,0.027281,0.086288,-0.165801,1.846638,-41.998257,-13.352463,,,,,,,
1508522297.815294,-3.055494,1.418580,-0.313558,0.502551,0.119408,0.174841,-0.013039,-0.988437,0.151068,0.057091,0.029224,-0.173346,1.743141,-42.128899,-12.948736,,,,,,,
1508522297.835304,-3.042587,1.407939,-0.327415,0.510165,-0.137744,0.156609,-0.016026,-0.986768,0.161345,0.067021,0.024442,-0.177961,1.683466,-42.197369,-12.731859,,,,,,,
1508522297.855299,-3.034090,1.398388,-0.342201,0.434648,-0.391507,0.183477,-0.018407,-0.985174,0.170565,0.058248,0.045325,-0.131838,3.596670,-39.673752,-13.688717,,,,,,,
1508522297.875331,-3.028139,1.389402,-0.358055,0.441112,-0.523258,0.178107,-0.020423,-0.983593,0.179242,0.044242,0.042400,-0.131985,3.395555,-39.770931,-13.456101,,,,,,,
1508522297.895330,-3.025959,1.382990,-0.370576,0.417826,-0.479921,0.108761,-0.021541,-0.982416,0.185457,-0.009617,0.019541,-0.085939,3.111519,-39.865734,-13.242552,,,,,,,
1508522297.915350,-3.026330,1.376046,-0.376883,0.287801,-0.218529,0.105756,-0.022256,-0.981096,0.192238,-0.174765,0.022661,0.029122,2.870587,-39.998901,-12.890751,,,,,,,
1508522297.935360,-3.017627,1.370571,-0.387555,0.262086,-0.037777,0.146141,-0.024592,-0.980022,0.197363,-0.212590,0.062511,0.047052,2.768323,-40.055840,-12.735369,,,,,,,
1508522297.955369,-3.008377,1.364349,-0.396242,0.311060,0.070456,0.117879,-0.027226,-0.978765,0.203168,-0.190120,0.093359,0.050860,2.651270,-40.132023,-12.518585,,,,,,,
1508522297.975378,-3.000600,1.357454,-0.402579,0.358979,0.083154,0.110831,-0.029753,-0.977329,0.209627,-0.048250,0.067386,0.024916,2.557039,-40.237740,-12.194656,,,,,,,
1508522297.995387,-2.997211,1.348404,-0.405191,0.487924,-0.002035,0.072435,-0.031735,-0.975373,0.218269,-0.003147,0.048172,0.002190,2.505738,-40.313271,-11.953457,,,,,,,
1508522298.015397,-2.998436,1.338582,-0.404871,0.457050,-0.058274,0.085980,-0.032833,-0.973159,0.227779,0.050548,-0.041520,0.002049,2.447617,-40.431526,-11.559612,,,,,,,
1508522298.035407,-2.993053,1.330627,-0.412558,0.362189,-0.133376,0.163931,-0.035203,-0.971298,0.235248,0.114655,0.005233,-0.000507,2.309013,-40.557671,-11.138550,,,,,,,
1508522298.055400,-2.993788,1.320819,-0.415234,0.580693,-0.206119,0.052817,-0.036431,-0.968918,0.244684,0.024407,0.059296,-0.065928,2.169019,-40.656952,-10.799590,,,,,,,
1508522298.075426,-3.012301,1.306112,-0.404059,0.835536,-0.470186,-0.082631,-0.033729,-0.965175,0.259421,-0.150688,0.034359,-0.080893,2.116502,-40.761097,-10.410434,,,,,,,
1508522298.095435,-3.036421,1.287219,-0.387367,1.035716,-0.331280,-0.126658,-0.029372,-0.960061,0.278246,-0.271135,-0.059455,-0.137102,2.095989,-40.885818,-9.913644,,,,,,,
1508522298.115428,-3.055159,1.266319,-0.372484,1.037702,-0.160130,-0.093505,-0.025880,-0.954004,0.298676,-0.374144,-0.148154,-0.162811,2.142426,-41.119526,-8.883596,,,,,,,
1508522298.135453,-3.063278,1.247521,-0.363365,0.902242,0.171532,-0.052847,-0.024853,-0.948200,0.316700,-0.291477,-0.160412,-0.217350,2.192890,-41.287922,-8.051234,,,,,,,
1508522298.155463,-3.064301,1.230064,-0.353200,0.881980,0.566400,-0.147478,-0.025803,-0.942510,0.333180,-0.159270,-0.171320,-0.326054,2.317991,-41.453777,-7.108788,,,,,,,
1508522298.175473,-3.065833,1.214169,-0.335696,0.739395,0.858144,-0.282592,-0.026423,-0.937080,0.348114,-0.121587,-0.352792,-0.428788,2.577787,-41.558495,-6.369464,,,,,,,
1508522298.195482,-3.062115,1.204510,-0.316482,0.341042,1.214154,-0.305841,-0.028435,-0.933664,0.357020,-0.104515,-0.440009,-0.462351,2.848438,-41.607052,-5.921440,,,,,,,
1508522298.215493,-3.052379,1.205016,-0.296975,-0.211535,1.500937,-0.402818,-0.031867,-0.933845,0.356255,-0.017281,-0.593499,-0.457513,3.145296,-41.622612,-5.655884,,,,,,,
1508522298.235501,-3.043586,1.218181,-0.270732,-0.865128,1.765216,-0.570920,-0.033793,-0.938473,0.343697,0.221232,-0.453633,-0.435341,3.949242,-41.525333,-5.862904,,,,,,,
1508522298.255500,-3.030972,1.243193,-0.243669,-1.345364,1.956568,-0.605617,-0.035522,-0.946816,0.319808,0.300903,-0.323814,-0.410399,4.294078,-41.444950,-6.180674,,,,,,,
1508522298.275495,-3.028203,1.275061,-0.208580,-1.623863,1.635283,-0.779582,-0.032976,-0.956588,0.289571,0.240556,-0.085969,-0.401769,5.473679,-41.067936,-7.601797,,,,,,,
1508522298.295529,-3.048805,1.312459,-0.161485,-1.883207,0.971219,-0.849304,-0.023671,-0.966816,0.254374,0.108906,-0.065945,-0.347209,6.148525,-40.792679,-8.513343,,,,,,,
1508522298.315538,-3.100140,1.352611,-0.099022,-1.960445,0.173269,-0.900588,-0.008970,-0.976292,0.216272,-0.216524,-0.034694,-0.264505,6.997032,-40.330772,-9.939522,,,,,,,
1508522298.335548,3.093290,1.389097,-0.012316,-1.703791,-0.411725,-0.761560,0.008725,-0.983538,0.180490,-0.540585,-0.058576,-0.021830,7.882215,-39.646881,-11.845626,,,,,,,
1508522298.355558,3.025486,1.418748,0.050429,-1.431366,-0.118653,-0.151120,0.017546,-0.988463,0.150443,-0.637374,-0.169145,0.163720,8.178996,-39.270386,-12.855524,,,,,,,
1508522298.375557,3.023894,1.448881,0.060798,-1.642138,0.804674,0.166197,0.014281,-0.992577,0.120772,-0.673552,-0.379737,0.436677,8.252185,-38.867744,-13.982973,,,,,,,
1508522298.395577,2.986665,1.489436,0.125114,-2.271140,1.590882,-0.208932,0.012541,-0.996692,0.080298,-0.416014,-0.237988,0.382822,8.563370,-38.211014,-15.521303,,,,,,,
1508522298.415568,2.607441,1.534154,0.541880,-2.565771,1.977794,-0.493229,0.018651,-0.999329,0.031531,-0.271581,-0.035217,0.248727,8.728168,-38.023582,-15.885530,,,,,,,
1508522298.435595,0.931213,1.534379,2.260933,-2.792558,2.146648,-0.543951,0.029212,-0.999337,-0.021731,-0.199455,0.082024,0.175311,10.216676,-36.599537,-18.177374,,,,,,,
1508522298.455605,0.498508,1.483354,2.738561,-2.812920,2.235007,-0.494009,0.041754,-0.996179,-0.076703,-0.169516,0.105966,0.098538,11.737654,-35.106861,-20.101233,,,,,,,
1508522298.475596,0.404158,1.434025,2.878670,-2.369325,2.248317,-0.266741,0.053617,-0.990661,-0.125361,-0.184965,-0.042984,0.079859,12.665139,-34.181808,-21.107391,,,,,,,
1508522298.495623,0.358779,1.394738,2.968816,-1.921523,2.111029,0.033915,0.061501,-0.984542,-0.163997,-0.247444,-0.080003,0.150509,13.786475,-33.122540,-22.071568,,,,,,,
1508522298.515608,0.319908,1.364435,3.048543,-1.552406,1.881239,0.299780,0.064437,-0.978783,-0.194504,-0.267546,-0.050636,0.252198,14.854418,-32.137459,-22.822220,,,,,,,
1508522298.535642,0.287738,1.339222,3.117806,-1.386275,1.708104,0.331898,0.065131,-0.973306,-0.220074,-0.181678,0.028116,0.342221,15.330257,-31.697832,-23.120430,,,,,,,
1508522298.555652,0.269803,1.314016,-3.112894,-1.376434,1.611005,0.211590,0.067693,-0.967213,-0.244781,-0.075048,0.034336,0.391677,15.923237,-31.149326,-23.462601,,,,,,,
1508522298.575636,0.268802,1.289341,-3.079523,-1.275994,1.539142,0.030293,0.073765,-0.960652,-0.267780,0.050884,0.080831,0.418109,16.736055,-30.421583,-23.848591,,,,,,,
1508522298.595670,0.277943,1.264421,-3.059330,-1.284186,1.323056,-0.094513,0.082754,-0.953433,-0.290030,0.066752,0.116763,0.445944,17.279385,-29.961637,-24.042603,,,,,,,
1508522298.615681,0.285504,1.239532,-3.044461,-1.224308,0.938342,-0.128381,0.091601,-0.945632,-0.312073,0.105116,0.223952,0.470917,17.954075,-29.306248,-24.354027,,,,,,,
1508522298.635664,0.288062,1.218195,-3.032471,-0.970761,0.542080,-0.093581,0.098109,-0.938478,-0.331111,0.150548,0.350969,0.500331,18.556946,-28.535021,-24.813627,,,,,,,
1508522298.655699,0.286077,1.203393,-3.024560,-0.613883,0.107455,-0.077122,0.101361,-0.933263,-0.344595,0.166690,0.381963,0.513235,18.754211,-28.181526,-25.068003,,,,,,,
1508522298.675697,0.278975,1.195411,-3.021738,-0.265501,-0.446068,-0.038464,0.100959,-0.930366,-0.352457,0.212548,0.388710,0.497156,18.825989,-27.927572,-25.297359,,,,,,,
1508522298.695718,0.262640,1.194781,-3.022783,0.137338,-1.136835,-0.049502,0.095341,-0.930135,-0.354624,0.209530,0.427099,0.410761,18.447620,-27.740406,-25.777481,,,,,,,
1508522298.715727,0.244724,1.205693,-3.037697,0.926870,-1.849412,-0.162776,0.086508,-0.934087,-0.346407,0.115366,0.407125,0.314089,17.768871,-27.912086,-26.067341,,,,,,,
1508522298.735707,0.223448,1.231023,-3.063790,1.477591,-2.580350,-0.094898,0.073851,-0.942830,-0.324988,0.023607,0.337560,0.210486,17.310793,-28.152863,-26.116592,,,,,,,
1508522298.755747,0.178915,1.260486,-3.083076,1.465042,-3.483939,0.033150,0.054341,-0.952239,-0.300480,-0.068868,-0.054536,-0.215572,15.258162,-29.259068,-26.180511,,,,,,,
1508522298.775737,0.110955,1.281994,-3.086757,0.748211,-3.421495,0.161438,0.031536,-0.958586,-0.283053,-0.204891,-0.191561,-0.479459,13.326317,-29.938307,-26.465652,,,,,,,
1508522298.795765,0.036677,1.287257,-3.067810,0.031811,-2.385658,0.374580,0.010258,-0.960071,-0.279568,-0.418858,-0.164135,-0.499226,11.956334,-30.185314,-26.836851,,,,,,,
1508522298.815776,-0.035814,1.289533,-3.026453,0.270200,-1.230889,0.718139,-0.009939,-0.960706,-0.277392,-0.754435,-0.052722,-0.415571,10.204506,-30.357504,-27.360807,,,,,,,
1508522298.835776,-0.111455,1.299000,-2.960958,0.629351,-0.271284,0.863440,-0.029860,-0.963290,-0.266796,-0.568224,-0.085278,-0.232365,9.226965,-30.761433,-27.256573,,,,,,,
1508522298.855794,-0.164482,1.307039,-2.902063,0.405880,0.386570,0.603360,-0.042689,-0.965417,-0.257191,-0.432836,-0.104254,-0.182704,8.825246,-31.112068,-26.990334,,,,,,,
1508522298.875803,-0.182583,1.308546,-2.868468,-0.054920,0.939263,0.310364,-0.047073,-0.965809,-0.254946,-0.233216,-0.044277,-0.127394,8.699157,-31.354471,-26.749680,,,,,,,
1508522298.895813,-0.171231,1.306012,-2.854190,0.074014,1.348758,0.163753,-0.044593,-0.965149,-0.257874,-0.327478,0.237869,0.651673,9.219432,-31.410957,-26.508064,,,,,,,
1508522298.915808,-0.161342,1.319159,-2.837568,1.066543,1.230063,0.092000,-0.039999,-0.968506,-0.245757,-0.289881,0.232422,0.802077,9.690067,-31.550911,-26.171864,,,,,,,
1508522298.935835,-0.151283,1.341591,-2.814679,0.899000,2.108579,0.057210,-0.034241,-0.973847,-0.224608,-0.042617,-0.669601,0.285872,10.487229,-32.289661,-24.934305,,,,,,,
1508522298.955823,-0.081152,1.336710,-2.814596,-0.829153,4.284177,0.082921,-0.018803,-0.972727,-0.231191,-0.067699,-0.979345,0.019414,11.466027,-32.451477,-24.284885,,,,,,,
1508522298.975838,-0.012142,1.323774,-2.800683,-0.307292,3.563031,0.212323,-0.002969,-0.969645,-0.244500,0.073388,-0.711981,-0.327964,13.432752,-32.114922,-23.717438,,,,,,,
1508522298.995860,-0.002201,1.328275,-2.769480,0.484357,1.072851,0.614124,-0.000529,-0.970736,-0.240150,0.936518,0.112047,0.354851,14.918387,-32.156479,-22.753597,,,,,,,
1508522299.015870,-0.073243,1.345534,-2.698902,1.024877,-0.638527,0.706730,-0.016345,-0.974736,-0.222763,1.195331,0.332676,0.544891,14.740274,-32.550251,-22.305363,,,,,,,
1508522299.035879,-0.110599,1.357861,-2.678739,0.350423,-0.988525,-0.142379,-0.023325,-0.977415,-0.210039,1.227274,0.527387,0.590914,14.070370,-33.124580,-21.888597,,,,,,,
1508522299.055889,-0.128671,1.368332,-2.682563,0.782545,-1.197492,0.012223,-0.025802,-0.979574,-0.199421,0.051101,0.118444,0.299153,13.605657,-33.320972,-21.884298,,,,,,,
1508522299.075900,-0.193415,1.388943,-2.648430,1.125361,-1.808900,0.205180,-0.034762,-0.983510,-0.177480,-0.449445,-0.100306,0.045278,12.919885,-33.777519,-21.598133,,,,,,,
1508522299.095908,-0.277756,1.407553,-2.601522,0.918919,-1.813274,0.138523,-0.044562,-0.986705,-0.156290,-0.456384,-0.170109,0.292689,12.205248,-34.162933,-21.406761,,,,,,,
1508522299.115917,-0.354160,1.423114,-2.549445,0.844901,-0.831520,0.172727,-0.051030,-0.989115,-0.138014,-0.348933,-0.043356,0.361448,11.246172,-34.681988,-21.095188,,,,,,,
1508522299.135926,-0.437117,1.435907,-2.469843,0.772846,0.109175,0.313389,-0.056929,-0.990916,-0.121836,-0.372804,0.033992,0.166956,10.897118,-35.077778,-20.618582,,,,,,,
1508522299.155936,-0.511921,1.446206,-2.385882,0.671714,0.547496,0.177664,-0.060873,-0.992249,-0.108337,-0.362452,0.037216,0.082870,10.825994,-35.267002,-20.331259,,,,,,,
1508522299.175945,-0.572397,1.455297,-2.312642,0.584410,0.613331,0.155698,-0.062421,-0.993337,-0.096874,0.082181,0.030645,0.017559,10.956205,-35.719769,-19.452082,,,,,,,
1508522299.195955,-0.648992,1.463081,-2.226416,0.610092,0.316968,0.167398,-0.064976,-0.994204,-0.085650,0.264866,0.099749,0.002414,11.039045,-35.981972,-18.914562,,,,,,,
1508522299.215964,-0.747454,1.471491,-2.126469,0.679647,-0.097657,0.087803,-0.067395,-0.995073,-0.072713,0.311703,0.095659,-0.004588,11.028759,-36.116493,-18.662502,,,,,,,
1508522299.235974,-0.873513,1.479535,-2.004918,0.693510,-0.331187,0.142043,-0.069863,-0.995839,-0.058521,0.189843,0.006916,-0.033901,10.851661,-36.523705,-17.960625,,,,,,,
1508522299.255984,-1.023534,1.484563,-1.863647,0.623317,-0.548870,0.158334,-0.073548,-0.996284,-0.044816,0.095581,-0.004586,-0.045852,10.664037,-36.730743,-17.648077,,,,,,,
1508522299.275993,-1.181170,1.487297,-1.719378,0.611732,-0.794271,0.155924,-0.077151,-0.996516,-0.031680,-0.031079,-0.011922,-0.027845,10.347219,-36.980282,-17.312355,,,,,,,
1508522299.296003,-1.363627,1.487548,-1.555582,0.686288,-1.039510,0.212785,-0.081374,-0.996537,-0.017104,-0.086275,0.042908,0.013823,10.054146,-37.162876,-17.092646,,,,,,,
1508522299.315989,-1.561781,1.484527,-1.377788,0.755463,-1.032052,0.229333,-0.086159,-0.996281,-0.000777,-0.017021,0.084233,0.093520,9.296815,-37.575603,-16.612253,,,,,,,
1508522299.336021,-1.754401,1.479090,-1.203981,0.809795,-0.933442,0.184072,-0.090039,-0.995798,0.016720,0.028195,0.075601,0.097462,8.923098,-37.796127,-16.314251,,,,,,,
1508522299.356032,-1.930920,1.471740,-1.043177,0.853464,-0.750954,0.123880,-0.092551,-0.995098,0.034849,0.153677,0.060329,0.013658,8.406765,-38.161022,-15.728519,,,,,,,
1508522299.376017,-2.097428,1.462149,-0.889684,0.971689,-0.682110,0.082318,-0.093742,-0.994104,0.054501,0.158591,0.047189,-0.036206,8.177902,-38.378822,-15.313778,,,,,,,
1508522299.396049,-2.247741,1.448516,-0.753013,1.064248,-0.766912,0.149032,-0.095079,-0.992533,0.076407,0.110612,0.012064,-0.074164,7.902174,-38.688225,-14.666308,,,,,,,
1508522299.416060,-2.369721,1.430460,-0.646417,1.157855,-0.834702,0.220027,-0.097561,-0.990169,0.100236,0.043285,-0.005574,-0.135667,7.458955,-39.107208,-13.759143,,,,,,,
1508522299.436072,-2.467335,1.408660,-0.564780,1.261019,-0.846197,0.290078,-0.100781,-0.986885,0.126102,0.022031,-0.008187,-0.221927,7.043826,-39.462105,-12.940271,,,,,,,
1508522299.456069,-2.540094,1.383401,-0.508159,1.324724,-0.857545,0.396005,-0.105424,-0.982493,0.153603,-0.043136,0.031626,-0.324761,6.695853,-39.737305,-12.265232,,,,,,,
1508522299.476089,-2.592038,1.356223,-0.472732,1.328865,-0.852004,0.462058,-0.111215,-0.977067,0.181578,-0.128256,0.017228,-0.379927,6.030173,-40.190891,-11.074878,,,,,,,
1508522299.496074,-2.627193,1.330477,-0.453032,1.111638,-0.763766,0.447554,-0.117105,-0.971262,0.207211,-0.156897,-0.118444,-0.437863,5.614337,-40.440746,-10.360923,,,,,,,
1508522299.516107,-2.645054,1.313749,-0.449636,0.493238,-0.716117,0.309393,-0.121109,-0.967145,0.223525,-0.095138,-0.170871,-0.491347,5.113999,-40.694317,-9.599123,,,,,,,
1508522299.536117,-2.648587,1.309894,-0.461634,-0.093208,-0.805414,0.203334,-0.122083,-0.966158,0.227234,-0.021624,-0.148070,-0.504334,4.823087,-40.787525,-9.350907,,,,,,,
1508522299.556112,-2.642932,1.311754,-0.487982,-0.294453,-1.133224,0.301511,-0.122506,-0.966636,0.224961,0.103447,-0.146844,-0.483765,1.409076,-40.478230,-6.781115,,,,,,,
1508522299.576135,-2.633050,1.314501,-0.527530,-0.428552,-1.584309,0.396955,-0.123430,-0.967336,0.221419,0.146562,-0.167567,-0.467940,1.075191,-40.451950,-6.995687,,,,,,,
1508522299.596131,-2.620003,1.322965,-0.577581,-0.863686,-1.844785,0.272850,-0.122224,-0.969447,0.212684,0.325410,-0.301992,-0.428992,0.668358,-40.410271,-7.281441,,,,,,,
1508522299.616156,-2.593230,1.345689,-0.642461,-1.723464,-1.756259,-0.059992,-0.116358,-0.974770,0.190483,0.639490,-0.639884,-0.461357,0.452608,-41.282726,-8.819100,,,,,,,
1508522299.636146,-2.530608,1.386692,-0.741573,-2.515062,-1.759109,-0.387017,-0.105020,-0.983101,0.149946,0.637994,-0.627892,-0.375959,0.337665,-41.112213,-9.587317,,,,,,,
1508522299.656172,-2.417864,1.435486,-0.895571,-2.702942,-2.057326,-0.633684,-0.089327,-0.990860,0.101084,0.562593,-0.397828,-0.167704,0.235558,-40.270569,-12.667694,,,,,,,
1508522299.676185,-2.180238,1.482874,-1.174939,-2.703858,-1.959985,-0.746481,-0.072000,-0.996137,0.050263,0.562921,-0.398134,-0.031906,0.227064,-39.718590,-14.304794,,,,,,,
1508522299.696174,-1.648729,1.512934,-1.749506,-2.223842,-2.240044,-0.560659,-0.057655,-0.998326,0.004502,0.519462,-0.374812,0.376372,0.194822,-38.904373,-16.390745,,,,,,,
1508522299.716203,-0.951902,1.509217,-2.500503,-2.222766,-2.871522,-0.386510,-0.050126,-0.998105,-0.035702,0.400346,-0.386463,0.761822,-0.381845,-37.946667,-18.497286,,,,,,,
1508522299.736213,-0.500001,1.475878,-3.011834,-2.701916,-2.793769,-0.401054,-0.045438,-0.995499,-0.083174,0.344907,-0.410019,0.805876,-0.577343,-37.739628,-18.911160,,,,,,,
1508522299.756221,-0.313442,1.424894,3.034337,-2.932489,-2.235305,-0.224722,-0.044827,-0.989375,-0.138301,0.095227,-0.349248,0.553463,-1.843660,-36.150566,-21.725153,,,,,,,
1508522299.776210,-0.244231,1.371914,2.922263,-2.694112,-1.994270,-0.221507,-0.047775,-0.980288,-0.191710,0.010773,-0.032010,0.402266,-2.899548,-34.511623,-24.140949,,,,,,,
1508522299.796233,-0.206186,1.325519,2.844948,-2.244701,-1.783489,-0.331566,-0.049713,-0.970070,-0.237682,-0.027206,0.136681,0.384792,-3.484163,-33.552147,-25.384224,,,,,,,
1508522299.816249,-0.188081,1.289542,2.794189,-1.732855,-1.387311,-0.274869,-0.051897,-0.960708,-0.272666,-0.017439,0.191085,0.452430,-4.176815,-32.448948,-26.680794,,,,,,,
1508522299.836260,-0.171635,1.256043,2.752631,-1.812730,-1.101749,-0.345585,-0.052875,-0.950873,-0.305033,-0.041898,0.212698,0.506632,-4.828296,-31.283943,-27.932907,,,,,,,
1508522299.856271,-0.145536,1.220974,2.706241,-1.867930,-0.706201,-0.554432,-0.049704,-0.939434,-0.339108,-0.085046,0.220974,0.545971,-4.556360,-32.033695,-26.468964,,,,,,,
1508522299.876278,-0.104591,1.186407,2.655748,-1.767860,-0.048233,-0.733050,-0.039150,-0.927028,-0.372944,-0.153722,0.233897,0.529423,-4.526692,-31.081005,-27.586308,,,,,,,
1508522299.896288,-0.054460,1.158708,2.611240,-1.193221,0.764107,-0.750039,-0.021802,-0.916286,-0.399930,-0.243838,0.276989,0.472409,-3.851016,-30.002186,-28.854166,,,,,,,
1508522299.916299,0.004372,1.144106,2.573600,-0.513216,1.464923,-0.739637,0.001809,-0.910341,-0.413856,-0.269128,0.328325,0.501594,-3.097532,-29.602013,-29.353878,,,,,,,
1508522299.936296,0.068561,1.138972,2.540159,-0.080125,1.756002,-0.674087,0.028672,-0.908204,-0.417545,-0.201417,0.329941,0.477451,-1.771973,-29.366045,-29.698816,,,,,,,
1508522299.956291,0.128530,1.139329,2.509684,0.141385,1.453339,-0.611797,0.053604,-0.908353,-0.414755,-0.051056,0.289517,0.409292,-0.025497,-29.369762,-29.747953,,,,,,,
1508522299.976327,0.175090,1.141109,2.481542,0.209712,0.788582,-0.526556,0.072568,-0.909096,-0.410217,-0.017636,0.286537,0.398880,0.816913,-29.434380,-29.672783,,,,,,,
1508522299.996315,0.202012,1.145261,2.458010,0.338733,-0.076793,-0.385599,0.082826,-0.910818,-0.404414,0.102766,0.277959,0.306010,1.525762,-29.558678,-29.520857,,,,,,,
1508522300.016340,0.202328,1.152036,2.439030,0.480784,-1.367191,-0.268280,0.081712,-0.913594,-0.398333,0.286162,0.335301,-0.045270,1.507954,-29.810843,-29.267113,,,,,,,
1508522300.036356,0.167824,1.164967,2.425448,0.803790,-2.880445,-0.057004,0.065943,-0.918775,-0.389234,0.330648,0.335432,-0.167422,1.348067,-29.879234,-29.205105,,,,,,,
1508522300.056364,0.095756,1.181986,2.426244,0.821886,-3.952327,0.252176,0.036245,-0.925361,-0.377351,0.308604,0.221015,-0.419539,-0.888595,-30.518976,-28.553928,,,,,,,
1508522300.076368,-0.012879,1.198567,2.450501,0.844870,-4.327148,0.610901,-0.004684,-0.931519,-0.363663,0.442596,-0.314865,-0.914032,-4.046843,-31.068533,-27.674782,,,,,,,
1508522300.096385,-0.127626,1.218101,2.493446,1.157232,-3.267881,0.693071,-0.043966,-0.938445,-0.342619,0.444158,-0.379579,-0.819170,-6.044816,-31.391031,-26.936729,,,,,,,
1508522300.116392,-0.215164,1.237728,2.535488,0.888746,-1.821949,0.376784,-0.069805,-0.945044,-0.319405,-0.067615,0.025915,-0.269203,-8.098455,-31.905067,-25.768312,,,,,,,
1508522300.136404,-0.239177,1.237725,2.544856,-0.561750,-0.135265,0.072217,-0.077455,-0.945043,-0.317640,-0.246871,-0.026973,-0.378115,-9.205227,-32.184071,-25.039440,,,,,,,
1508522300.156413,-0.212886,1.217960,2.538892,-0.837531,1.619191,0.186260,-0.073011,-0.938397,-0.337759,-0.426410,0.085674,0.141013,-9.108947,-31.848145,-25.499939,,,,,,,
1508522300.176422,-0.194804,1.224564,2.552787,1.174229,1.087647,0.078954,-0.065691,-0.940658,-0.332938,-0.607466,0.280273,0.870902,-8.384859,-31.524414,-26.142487,,,,,,,
1508522300.196432,-0.194337,1.268410,2.555823,2.493216,-0.085297,-0.669144,-0.057510,-0.954628,-0.292194,-0.368546,-0.252952,0.753864,-7.852983,-32.566090,-25.006092,,,,,,,
1508522300.216431,-0.158846,1.293020,2.522411,-0.438711,0.655194,-0.492613,-0.043375,-0.961668,-0.270765,0.031641,-1.084551,-0.090654,-7.374389,-33.584953,-23.773798,,,,,,,
1508522300.236450,-0.080520,1.262708,2.508787,-1.148831,4.543947,0.183772,-0.024390,-0.952915,-0.302255,0.012656,-1.093304,-0.059164,-7.374389,-33.584953,-23.773798,,,,,,,
1508522300.256460,-0.044732,1.277556,2.538433,1.655340,1.789208,0.575367,-0.012926,-0.957312,-0.288767,0.343584,0.114539,-0.133200,-4.370967,-32.953011,-25.347937,,,,,,,
1508522300.276469,-0.111148,1.303441,2.595159,0.862704,-1.898429,0.677834,-0.029303,-0.964473,-0.262552,0.739890,0.419124,0.764108,-4.644770,-33.663925,-24.345234,,,,,,,
1508522300.296478,-0.215635,1.312936,2.645769,0.695134,-2.731697,0.538469,-0.054565,-0.966938,-0.249107,0.779845,0.405979,0.757392,-5.842090,-33.850529,-23.823017,,,,,,,
1508522300.316489,-0.306551,1.340468,2.707435,2.022738,-1.005440,0.122706,-0.068894,-0.973591,-0.217654,0.586136,0.513661,0.448199,-7.053419,-34.057217,-23.192226,,,,,,,
1508522300.336492,-0.382279,1.385983,2.768314,2.346878,-0.693451,-0.227878,-0.068550,-0.982971,-0.170499,-0.563835,-0.303345,0.499814,-7.846170,-35.379555,-20.838638,,,,,,,
1508522300.356507,-0.477926,1.418120,2.855638,1.290849,-0.465113,0.201188,-0.069949,-0.988368,-0.135043,-0.690183,-0.497747,0.250384,-7.931985,-36.055153,-19.612083,,,,,,,
1508522300.376503,-0.589974,1.428210,2.955248,0.712582,-0.754315,0.346325,-0.079058,-0.989852,-0.118082,-0.374311,-0.200395,0.042948,-8.455904,-36.515591,-18.510365,,,,,,,
1508522300.396528,-0.722537,1.437876,3.075613,1.008393,-0.593842,0.408514,-0.087640,-0.991179,-0.099414,-0.143286,0.022185,0.069919,-8.964787,-36.750507,-17.792051,,,,,,,
1508522300.416511,-0.908937,1.448050,-3.029653,1.261842,-0.557972,0.375496,-0.096585,-0.992476,-0.075249,0.129636,0.240050,0.022560,-9.332633,-36.974964,-17.125368,,,,,,,
1508522300.436537,-1.149503,1.456844,-2.803280,1.416561,-0.882400,0.279636,-0.103763,-0.993514,-0.046499,0.231647,0.204254,0.035528,-9.928641,-37.426868,-15.753601,,,,,,,
1508522300.456557,-1.431189,1.459937,-2.537750,1.482592,-0.835772,0.256792,-0.109556,-0.993861,-0.015395,0.229414,0.128841,0.067855,-10.289277,-37.716370,-14.803049,,,,,,,
1508522300.476565,-1.684235,1.455655,-2.297267,1.215321,-0.615910,0.204709,-0.114148,-0.993379,0.013005,0.149625,-0.013030,0.076931,-10.711380,-38.076168,-13.527590,,,,,,,
1508522300.496575,-1.851990,1.447926,-2.140067,0.904367,-0.570014,0.219213,-0.117747,-0.992461,0.034011,-0.115346,-0.027909,0.016862,-11.097431,-38.383114,-12.292583,,,,,,,
1508522300.516584,-1.982285,1.435902,-2.020982,0.955274,-0.624826,0.349491,-0.123260,-0.990916,0.053791,-0.218461,0.049830,0.006039,-11.448419,-38.537968,-11.457872,,,,,,,
1508522300.536593,-2.092505,1.419736,-1.920584,1.007290,-0.477023,0.396881,-0.130467,-0.988612,0.074997,-0.211849,0.051051,0.000366,-11.657891,-38.604637,-11.013614,,,,,,,
1508522300.556603,-2.180238,1.404307,-1.838962,0.925460,-0.290507,0.254735,-0.135886,-0.986173,0.094861,-0.057397,0.027738,-0.044354,-12.220673,-38.781422,-9.704666,,,,,,,
1508522300.576610,-2.249251,1.389749,-1.773457,0.870038,-0.201220,0.260734,-0.140185,-0.983656,0.113004,0.095812,-0.030474,-0.068082,-12.397337,-38.865711,-9.126143,,,,,,,
1508522300.596622,-2.303279,1.373030,-1.724568,0.925294,-0.409036,0.383478,-0.146086,-0.980508,0.131390,0.193388,-0.008460,-0.136288,-12.579237,-38.932133,-8.577648,,,,,,,
1508522300.616632,-2.359090,1.352773,-1.681671,1.080864,-0.859331,0.445113,-0.152504,-0.976327,0.153390,0.249886,0.008050,-0.156121,-12.926490,-38.988152,-7.768790,,,,,,,
1508522300.636638,-2.421948,1.329284,-1.639360,1.238614,-1.192987,0.445098,-0.157642,-0.970977,0.179866,0.239383,-0.005753,-0.131008,-13.264711,-39.017632,-7.014011,,,,,,,
1508522300.656650,-2.481051,1.304566,-1.604294,1.196058,-1.264138,0.445757,-0.161421,-0.964770,0.207756,0.168394,-0.000898,-0.098656,-13.996548,-39.054798,-5.132601,,,,,,,
1508522300.676661,-2.528950,1.282344,-1.579290,1.047139,-1.145488,0.328561,-0.163578,-0.958685,0.232733,0.080342,0.058951,-0.044027,-14.343647,-39.043991,-4.165446,,,,,,,
1508522300.696671,-2.574665,1.262912,-1.554262,1.016433,-1.047115,0.202742,-0.162747,-0.952977,0.255634,-0.004901,0.069432,0.019513,-14.816771,-39.013023,-2.443708,,,,,,,
1508522300.716681,-2.616933,1.241526,-1.529176,1.199435,-0.870773,0.228875,-0.161973,-0.946278,0.279860,-0.022948,0.093556,-0.017867,-14.968853,-38.998341,-1.608384,,,,,,,
1508522300.736677,-2.658758,1.216219,-1.504141,1.349556,-0.943001,0.254549,-0.161199,-0.937793,0.307504,-0.154536,-0.048764,-0.046563,-15.215960,-38.935787,-0.056696,,,,,,,
1508522300.756699,-2.692013,1.189835,-1.488710,1.224722,-0.918008,0.395148,-0.161585,-0.928308,0.334866,-0.057317,-0.188926,-0.134167,-15.445549,-38.824493,1.271937,,,,,,,
1508522300.776710,-2.711244,1.167884,-1.485074,0.913703,-0.709609,0.400192,-0.163579,-0.919923,0.356348,0.033009,-0.173156,-0.224359,-15.586473,-38.743889,1.870166,,,,,,,
1508522300.796718,-2.724521,1.150627,-1.485415,0.696613,-0.690628,0.327076,-0.165240,-0.913020,0.372948,0.197909,-0.181005,-0.330467,-15.981199,-38.490932,3.251734,,,,,,,
1508522300.816728,-2.739153,1.138528,-1.486042,0.475424,-0.798256,0.198464,-0.164081,-0.908018,0.385462,0.245837,-0.223315,-0.356837,-16.147417,-38.355762,3.952283,,,,,,,
1508522300.836737,-2.756411,1.131701,-1.484674,0.230773,-0.802852,0.062284,-0.159729,-0.905137,0.393972,0.290009,-0.304107,-0.473257,-16.182465,-38.308643,4.254380,,,,,,,
1508522300.856730,-2.773027,1.131421,-1.484576,-0.158745,-0.823169,-0.034644,-0.153253,-0.905017,0.396809,0.144128,-0.506558,-0.706532,-16.129992,-38.258904,4.858386,,,,,,,
1508522300.876758,-2.782876,1.144008,-1.489543,-0.961405,-0.615053,-0.184853,-0.145326,-0.910300,0.387601,0.047914,-0.592065,-0.940899,-15.987853,-38.328312,4.780480,,,,,,,
1508522300.896758,-2.778915,1.175957,-1.502786,-1.934285,-0.332704,-0.404543,-0.136469,-0.923058,0.359638,0.063715,-0.599021,-1.020405,-15.881735,-38.411774,4.453101,,,,,,,
1508522300.916777,-2.778356,1.219869,-1.515556,-2.143414,-0.748803,-0.644022,-0.122141,-0.939054,0.321338,0.432536,-0.327288,-0.697620,-15.327007,-38.816147,2.431816,,,,,,,
1508522300.936778,-2.791759,1.265816,-1.519705,-2.248469,-0.918198,-0.798340,-0.102917,-0.953853,0.282087,0.682659,-0.228917,-0.417600,-14.906458,-39.031471,1.365956,,,,,,,
1508522300.956795,-2.820863,1.316997,-1.516805,-2.465116,-1.671647,-0.903978,-0.079156,-0.967965,0.238280,0.392572,-0.484885,-0.264921,-14.425590,-39.234734,0.249000,,,,,,,
1508522300.976806,-2.872392,1.374685,-1.510467,-2.974649,-2.620053,-0.907837,-0.051824,-0.980832,0.187838,-0.089472,-0.900318,0.397168,-13.736568,-39.462238,-1.250040,,,,,,,
1508522300.996806,-2.922627,1.444750,-1.521599,-3.624522,-3.135791,-0.544125,-0.027307,-0.992067,0.122712,-0.300619,-1.012221,0.756225,-13.002110,-39.589840,-3.333772,,,,,,,
1508522301.016824,-2.682860,1.514503,-1.812442,-3.691842,-1.947701,0.470919,-0.024914,-0.998416,0.050447,-0.309757,-0.722348,0.807875,-12.880512,-39.469807,-4.873479,,,,,,,
1508522301.036813,-0.994692,1.527947,2.759233,-3.725487,-0.714272,0.483287,-0.035922,-0.999082,-0.023336,-0.250363,-0.033450,0.402394,-13.708397,-38.563225,-8.513625,,,,,,,
1508522301.056842,-0.402548,1.470805,2.158813,-3.206276,-0.159799,-0.063546,-0.039108,-0.995005,-0.091846,-0.169068,0.080119,0.331805,-14.015505,-37.784451,-11.109679,,,,,,,
1508522301.076832,-0.220443,1.419252,1.977764,-2.582008,0.270093,-0.373232,-0.033010,-0.988539,-0.147312,-0.128077,0.088805,0.373447,-13.981709,-37.437138,-12.267721,,,,,,,
1508522301.096846,-0.136944,1.372037,1.900432,-2.424965,0.353869,-0.088650,-0.026956,-0.980312,-0.195604,0.005334,-0.055576,0.392641,-13.520117,-36.501911,-15.242739,,,,,,,
1508522301.116871,-0.121788,1.320171,1.887876,-2.706594,0.003808,0.317622,-0.030130,-0.968758,-0.246173,0.020425,-0.074593,0.451388,-13.474460,-35.900116,-16.647659,,,,,,,
1508522301.136879,-0.121752,1.262485,1.886784,-2.910984,-0.028004,0.303134,-0.036854,-0.952847,-0.301204,-0.002040,0.058606,0.579418,-13.702843,-34.846016,-18.587940,,,,,,,
1508522301.156891,-0.112693,1.208214,1.881308,-2.535147,0.395281,0.192629,-0.039886,-0.934984,-0.352440,-0.147202,0.220873,0.683372,-13.904720,-33.355309,-21.014429,,,,,,,
1508522301.176901,-0.091889,1.163268,1.876982,-2.055182,1.101244,0.125787,-0.036368,-0.918103,-0.394670,-0.210809,0.383206,0.704896,-13.723074,-32.274849,-22.749405,,,,,,,
1508522301.196907,-0.057995,1.130226,1.873935,-1.376067,1.829305,0.028663,-0.024718,-0.904509,-0.425738,-0.239106,0.441877,0.724643,-13.483634,-31.800522,-23.546612,,,,,,,
1508522301.216914,-0.010646,1.112304,1.871264,-0.622400,2.458587,-0.051949,-0.004712,-0.896721,-0.442572,-0.235858,0.517311,0.730932,-12.086940,-30.856083,-25.481998,,,,,,,
1508522301.236918,0.045581,1.108137,1.866054,0.024039,2.557728,-0.159401,0.020337,-0.894869,-0.445866,-0.145719,0.484972,0.680302,-10.707668,-30.686718,-26.290598,,,,,,,
1508522301.256938,0.099810,1.113534,1.855627,0.404551,1.962422,-0.216336,0.043993,-0.897264,-0.439296,-0.103853,0.475130,0.663631,-9.989264,-30.727772,-26.524384,,,,,,,
1508522301.276950,0.132953,1.124433,1.848076,0.667694,0.930428,-0.007319,0.057225,-0.902023,-0.427879,0.095790,0.388153,0.563056,-8.384993,-31.117704,-26.625263,,,,,,,
1508522301.296946,0.136745,1.142299,1.848752,1.012869,-0.252402,0.218232,0.056641,-0.909591,-0.411626,0.231506,0.301712,0.372456,-8.161186,-31.525898,-26.211391,,,,,,,
1508522301.316967,0.104673,1.166994,1.860552,1.297263,-1.493388,0.512446,0.041053,-0.919574,-0.390767,0.238381,0.264422,0.311070,-8.161186,-31.525898,-26.211391,,,,,,,
1508522301.336978,0.036490,1.197700,1.891440,1.619828,-2.203443,0.745621,0.013298,-0.931203,-0.364258,0.143044,0.243947,0.159287,-9.330303,-32.337639,-24.794088,,,,,,,
1508522301.356988,-0.037257,1.229188,1.927718,1.248313,-1.631385,0.535362,-0.012478,-0.942217,-0.334771,-0.022480,-0.450682,-0.993888,-11.497147,-33.263012,-22.559078,,,,,,,
1508522301.376996,-0.062745,1.234086,1.948760,-0.127851,0.609645,0.187108,-0.020716,-0.943847,-0.329734,-0.106573,-0.784715,-1.291650,-11.497147,-33.263012,-22.559078,,,,,,,
1508522301.397008,-0.033202,1.233910,1.948445,0.110579,1.784490,-0.107099,-0.010973,-0.943789,-0.330368,-0.262129,-0.712965,-1.079834,-12.018400,-33.386620,-22.100132,,,,,,,
1508522301.417016,0.025257,1.235298,1.929997,0.004392,2.127823,-0.369643,0.008315,-0.944246,-0.329135,-0.062178,0.042971,-0.450101,-10.640798,-33.481628,-22.655643,,,,,,,
1508522301.437019,0.071323,1.232094,1.922536,-0.300793,1.830042,0.097165,0.023678,-0.943187,-0.331419,0.007450,0.184886,-0.243334,-10.044839,-33.513428,-22.879589,,,,,,,
1508522301.457014,0.088731,1.224195,1.943011,-0.321359,1.781904,0.302455,0.030103,-0.940533,-0.338366,0.076633,0.106625,0.124972,-8.856159,-33.253284,-23.734194,,,,,,,
1508522301.477045,0.113368,1.233303,1.934063,1.032982,0.086363,-0.420192,0.037458,-0.943588,-0.328997,0.066896,0.021179,0.211291,-8.420034,-33.217262,-23.942446,,,,,,,
1508522301.497047,0.168740,1.263579,1.871917,1.672514,0.026288,-0.794008,0.050786,-0.953179,-0.298112,0.061015,-0.182014,0.485917,-8.065567,-33.861263,-23.149208,,,,,,,
1508522301.517040,0.218801,1.271076,1.838102,-0.298883,1.432498,-0.272586,0.064087,-0.955419,-0.288214,0.271988,-0.784083,0.272802,-7.322126,-34.616669,-22.262012,,,,,,,
1508522301.537071,0.255837,1.260658,1.828556,-0.333994,1.115146,-0.196454,0.077230,-0.952291,-0.295257,0.375773,-0.735544,0.284439,-6.666784,-34.491291,-22.658970,,,,,,,
1508522301.557057,0.242148,1.264738,1.841316,0.462136,-0.948843,0.565590,0.072249,-0.953529,-0.292512,0.540468,0.196738,0.407014,-6.198558,-34.398937,-22.930656,,,,,,,
1508522301.577093,0.163363,1.284527,1.885949,1.014727,-1.887272,0.840952,0.045925,-0.959304,-0.278616,0.276158,0.665938,0.922659,-7.532893,-34.627003,-22.175447,,,,,,,
1508522301.597087,0.106145,1.313895,1.923361,1.655374,-0.409661,0.607790,0.026919,-0.967182,-0.252655,-0.333331,0.682987,0.768249,-8.465847,-34.908298,-21.383739,,,,,,,
1508522301.617112,0.104120,1.354236,1.940042,2.105543,1.298121,0.244395,0.022332,-0.976642,-0.213708,-0.898934,0.283588,0.461800,-8.913604,-35.346836,-20.461494,,,,,,,
1508522301.637098,0.168268,1.392619,1.909275,1.746140,1.721856,-0.152206,0.029683,-0.984168,-0.174732,-1.093769,-0.262200,0.259724,-8.343514,-36.485283,-18.620796,,,,,,,
1508522301.657115,0.232363,1.415377,1.868580,0.877641,0.875815,-0.101454,0.035646,-0.987947,-0.150634,-0.852479,-0.590407,0.041045,-7.852657,-36.916794,-17.972488,,,,,,,
1508522301.677141,0.266942,1.430305,1.847732,0.802595,0.710262,0.239584,0.036937,-0.990147,-0.135070,-0.124538,-0.229656,0.067657,-7.560951,-37.167767,-17.575926,,,,,,,
1508522301.697151,0.234418,1.454583,1.900304,1.299761,1.119799,0.772111,0.026933,-0.993255,-0.112780,0.345595,0.141311,0.041293,-7.440028,-37.417679,-17.090572,,,,,,,
1508522301.717065,0.189389,1.489065,1.963814,1.765679,0.663020,0.545627,0.015369,-0.996662,-0.080180,0.465557,0.313877,0.184962,-7.732030,-37.930351,-15.780625,,,,,,,
1508522301.737075,0.207220,1.527540,1.951976,1.951703,0.131834,0.264603,0.008897,-0.999065,-0.042318,0.448882,0.242152,0.160543,-7.732030,-37.930351,-15.780625,,,,,,,
1508522301.757087,1.113056,1.565790,1.046088,2.007270,-0.046889,0.201042,0.004491,-0.999987,-0.002213,0.092860,0.001620,0.034744,-8.086052,-38.930878,-12.904522,,,,,,,
1508522301.777094,3.097247,1.535804,-0.940197,1.729583,-0.134189,0.104987,0.001551,-0.999388,0.034951,0.095800,0.001021,-0.002419,-8.086052,-38.930878,-12.904522,,,,,,,
1508522301.797093,3.130681,1.504495,-0.976969,1.524215,-0.161931,0.039386,0.000723,-0.997803,0.066249,-0.063162,0.014603,-0.061168,-8.291660,-39.549755,-10.704649,,,,,,,
1508522301.817115,-3.125228,1.472129,-1.006540,1.695312,-0.075404,0.201640,-0.001612,-0.995136,0.098494,-0.263555,0.049091,-0.030486,-8.419648,-39.990353,-8.798037,,,,,,,
1508522301.837123,-3.084444,1.436122,-1.049371,1.822821,-0.107848,0.360250,-0.007669,-0.990945,0.134048,-0.228735,0.010644,-0.031891,-8.653772,-40.227558,-7.374263,,,,,,,
1508522301.857134,-3.057724,1.399192,-1.077875,1.819652,-0.021935,0.320893,-0.014305,-0.985312,0.170163,-0.160896,-0.026468,-0.042920,-8.807460,-40.323814,-6.628950,,,,,,,
1508522301.877142,-3.043541,1.363368,-1.091085,1.730231,0.091635,0.278716,-0.020161,-0.978564,0.204954,0.008274,-0.055814,-0.051192,-9.191199,-40.538368,-4.436966,,,,,,,
1508522301.897152,-3.030546,1.329311,-1.102887,1.665256,0.050472,0.337785,-0.026502,-0.970984,0.237672,0.116422,0.015448,-0.080979,-9.423156,-40.611145,-3.076254,,,,,,,
1508522301.917161,-3.020933,1.294161,-1.113707,1.781428,-0.115377,0.319453,-0.032875,-0.961980,0.271135,0.145164,0.062642,-0.120851,-9.562004,-40.624283,-2.400028,,,,,,,
1508522301.937174,-3.023718,1.256795,-1.115785,1.881787,-0.328229,0.224294,-0.036323,-0.951105,0.306723,0.069252,0.032999,-0.275260,-9.931774,-40.606079,-0.174253,,,,,,,
1508522301.957160,-3.031507,1.219258,-1.118591,1.806213,-0.638125,0.300097,-0.037831,-0.938844,0.342258,-0.025234,-0.110213,-0.416385,-10.069987,-40.559208,1.034542,,,,,,,
1508522301.977190,-3.036386,1.187197,-1.129477,1.389809,-0.764021,0.386003,-0.039302,-0.927324,0.372191,0.008876,-0.247359,-0.457763,-10.301809,-40.430897,2.596066,,,,,,,
1508522301.997201,-3.040756,1.165764,-1.138762,0.848103,-0.571083,0.187894,-0.039667,-0.919089,0.392047,0.157358,-0.328332,-0.484241,-10.591891,-40.236603,4.043718,,,,,,,
1508522302.017188,-3.057463,1.155817,-1.132601,0.286663,-0.586073,-0.234131,-0.033879,-0.915125,0.401745,0.177372,-0.335135,-0.616955,-10.617856,-40.209057,4.244646,,,,,,,
1508522302.037219,-3.088359,1.159240,-1.113542,-0.407121,-0.702247,-0.447571,-0.021285,-0.916499,0.399470,-0.005707,-0.399159,-0.822199,-10.334653,-40.214520,4.848894,,,,,,,
1508522302.057231,-3.120559,1.175803,-1.092172,-1.057777,-0.553135,-0.435793,-0.008093,-0.922999,0.384717,-0.260156,-0.603246,-0.971707,-9.806113,-40.392937,4.446912,,,,,,,
1508522302.077238,3.134102,1.204310,-1.070233,-1.597762,-0.329666,-0.409204,0.002684,-0.933592,0.358328,-0.510863,-0.709581,-0.945043,-7.689785,-43.866428,-0.017468,,,,,,,
1508522302.097233,3.105004,1.237007,-1.045487,-1.584000,-0.244611,-0.387731,0.011985,-0.944807,0.327407,-0.393027,-0.648027,-0.768096,-7.689785,-43.866428,-0.017468,,,,,,,
1508522302.117256,3.073769,1.268052,-1.011248,-1.678839,0.286227,-0.495652,0.020206,-0.954522,0.297456,0.455548,-0.313529,-0.183091,-6.976866,-43.898079,-2.771043,,,,,,,
1508522302.137267,3.034369,1.307554,-0.963566,-2.205857,0.118761,-0.466057,0.027848,-0.965551,0.258719,0.544082,-0.337015,-0.069464,-6.512578,-43.828136,-4.480745,,,,,,,
1508522302.157261,2.968058,1.355373,-0.910147,-2.604929,-1.241990,-0.195676,0.036909,-0.976886,0.210550,0.172289,-0.613644,0.167654,-6.266462,-43.685593,-5.974682,,,,,,,
1508522302.177274,2.851426,1.411983,-0.829110,-3.130863,-2.049440,0.005933,0.045248,-0.987416,0.151536,-0.192999,-0.856273,0.594360,-6.374484,-43.207310,-8.711529,,,,,,,
1508522302.197296,2.668961,1.479152,-0.678117,-3.631776,-1.186454,0.643427,0.041661,-0.995804,0.081483,-0.205784,-0.811310,0.665892,-6.744959,-42.719757,-10.626586,,,,,,,
1508522302.217293,1.840194,1.545766,0.144880,-3.711731,0.085193,0.945051,0.024125,-0.999687,0.006661,-0.270997,-0.290276,0.485496,-7.571704,-41.734138,-13.576724,,,,,,,
1508522302.237318,0.151036,1.507081,1.844079,-3.326998,0.643562,0.580247,0.009580,-0.997971,-0.062947,-0.233732,-0.040603,0.404790,-8.356401,-40.164181,-17.332212,,,,,,,
1508522302.257325,0.034021,1.446766,1.979521,-2.927356,1.032113,0.262287,0.004208,-0.992318,-0.123641,-0.184735,-0.022666,0.477202,-8.435259,-39.221966,-19.335981,,,,,,,
1508522302.277335,0.012450,1.390128,2.022486,-2.809218,1.006678,0.297315,0.002237,-0.983724,-0.179673,-0.028452,-0.036357,0.527527,-8.282350,-38.296680,-21.169870,,,,,,,
1508522302.297346,-0.008290,1.332866,2.062278,-2.916970,0.858583,0.461349,-0.001954,-0.971828,-0.235683,-0.017074,-0.008534,0.579479,-7.975617,-36.269623,-24.582520,,,,,,,
1508522302.317329,-0.023427,1.272539,2.096055,-3.029923,0.906579,0.498784,-0.006884,-0.955850,-0.293774,-0.078871,0.101526,0.641507,-7.906791,-35.082207,-26.270092,,,,,,,
1508522302.337364,-0.024577,1.216897,2.120542,-2.529548,1.289545,0.421218,-0.008517,-0.938028,-0.346454,-0.189024,0.274836,0.677325,-7.793243,-33.798153,-27.934689,,,,,,,
1508522302.357375,-0.004071,1.175100,2.136663,-1.834412,2.083294,0.276363,-0.001569,-0.922728,-0.385447,-0.245410,0.392135,0.753596,-7.366169,-32.221886,-29.847717,,,,,,,
1508522302.377384,0.035344,1.145397,2.149810,-1.297027,2.844567,0.237720,0.014583,-0.910874,-0.412427,-0.229259,0.446335,0.814130,-5.596611,-30.522051,-31.944933,,,,,,,
1508522302.397393,0.086853,1.126286,2.161842,-0.761496,3.216862,0.151919,0.037301,-0.902821,-0.428395,-0.219033,0.455128,0.819234,-5.596611,-30.522051,-31.944933,,,,,,,
1508522302.417404,0.145919,1.116949,2.166512,-0.329913,3.054601,-0.007547,0.063748,-0.898767,-0.433768,-0.143628,0.493509,0.778281,-2.736771,-29.551542,-33.205616,,,,,,,
1508522302.437413,0.195440,1.113600,2.168163,-0.086824,2.149617,0.064048,0.085726,-0.897294,-0.433030,0.038969,0.380235,0.586884,0.178664,-29.238964,-33.592373,,,,,,,
1508522302.457423,0.212008,1.116808,2.179642,0.252832,0.876972,0.426838,0.092282,-0.898705,-0.428734,0.103443,0.337670,0.534203,0.816940,-29.220745,-33.598766,,,,,,,
1508522302.477427,0.194828,1.130695,2.203593,0.757448,-0.136658,0.759243,0.082479,-0.904709,-0.417971,0.234431,0.245239,0.426867,1.169401,-29.569204,-33.281990,,,,,,,
1508522302.497442,0.150544,1.152439,2.237008,1.021665,-1.021156,0.920466,0.060929,-0.913757,-0.401665,0.241088,0.242065,0.346368,0.359923,-30.166632,-32.760361,,,,,,,
1508522302.517430,0.084252,1.175288,2.277773,1.044340,-1.634149,0.915931,0.032422,-0.922801,-0.383911,0.067279,0.203211,0.100571,-0.657085,-30.667824,-32.286987,,,,,,,
1508522302.537455,0.017545,1.192925,2.316912,0.634655,-1.262972,0.671133,0.006473,-0.929452,-0.368886,0.066129,-0.162177,-0.330852,-2.599862,-31.402168,-31.472858,,,,,,,
1508522302.557471,-0.019819,1.200073,2.342805,0.242917,-0.330088,0.353441,-0.007180,-0.932066,-0.362218,0.143441,-0.421007,-0.555735,-3.357262,-31.613621,-31.188210,,,,,,,
1508522302.577458,-0.023249,1.202818,2.350761,0.083357,0.563282,0.011016,-0.008363,-0.933056,-0.359633,0.218614,-0.477130,-0.574449,-3.699681,-31.731691,-31.029156,,,,,,,
1508522302.597491,0.005115,1.199437,2.343917,-0.353322,1.359730,-0.141050,0.001856,-0.931835,-0.362878,0.043752,-0.075810,-0.518699,-3.055205,-31.717260,-31.113947,,,,,,,
1508522302.617502,0.029554,1.189843,2.348596,-0.506290,1.353802,0.266544,0.010987,-0.928310,-0.371644,-0.112031,0.100140,-0.369079,-2.138017,-31.441158,-31.468699,,,,,,,
1508522302.637486,0.021454,1.180574,2.380699,-0.430293,0.946502,0.763035,0.008160,-0.924825,-0.380306,-0.184353,0.140767,-0.210545,-1.741725,-31.191031,-31.740864,,,,,,,
1508522302.657511,-0.006693,1.182113,2.423989,0.493217,0.273482,0.741401,-0.002536,-0.925409,-0.378962,-0.313962,0.242853,0.084941,-1.708407,-30.978182,-31.950432,,,,,,,
1508522302.677528,-0.037451,1.210308,2.446706,1.988647,-0.827841,0.147072,-0.013207,-0.935725,-0.352484,-0.451087,0.008814,0.420004,-1.779768,-31.050449,-31.876301,,,,,,,
1508522302.697541,-0.038349,1.249728,2.440954,1.352114,0.409565,-0.312957,-0.012099,-0.948899,-0.315349,-0.477784,-0.375290,0.445842,-2.445373,-32.274128,-30.590805,,,,,,,
1508522302.717548,0.050850,1.255143,2.398225,0.053773,3.376268,-0.924076,0.015779,-0.950594,-0.310037,-0.061098,-1.102629,0.410516,-1.174314,-33.296844,-29.552288,,,,,,,
1508522302.737558,0.151752,1.251655,2.358011,-0.354829,2.476012,-0.207297,0.047430,-0.949505,-0.310145,0.688364,0.197018,0.202952,1.360204,-33.289772,-29.552280,,,,,,,
1508522302.757546,0.110922,1.246845,2.408867,-0.242768,-0.888790,1.213582,0.035236,-0.947985,-0.316359,0.706433,0.504488,0.460890,1.982982,-33.175369,-29.645557,,,,,,,
1508522302.777558,0.034127,1.254198,2.470462,0.765234,-0.415377,0.648363,0.010623,-0.950300,-0.311155,0.681775,0.905607,0.735135,1.083008,-33.049911,-29.831642,,,,,,,
1508522302.797587,0.028042,1.291261,2.476471,2.430533,-0.207261,-0.039400,0.007736,-0.961184,-0.275800,-0.134292,0.370913,0.464597,0.185067,-33.975822,-28.792458,,,,,,,
1508522302.817585,0.021121,1.344083,2.471239,2.607340,-0.623490,0.045860,0.004747,-0.974410,-0.224726,-0.354524,0.030273,0.646296,0.106657,-34.691803,-27.926044,,,,,,,
1508522302.837604,0.011480,1.391086,2.474994,2.123588,-0.124785,0.107193,0.002052,-0.983896,-0.178733,-0.525932,-0.708518,0.328116,-0.339621,-36.714554,-25.205608,,,,,,,
1508522302.857616,-0.033426,1.420202,2.516512,1.040200,-0.274894,0.459085,-0.005014,-0.988682,-0.149942,-0.499518,-0.742412,0.089639,-0.492768,-37.406254,-24.164558,,,,,,,
1508522302.877600,-0.116963,1.434773,2.597126,0.806811,-0.054668,0.515886,-0.015825,-0.990763,-0.134677,-0.182036,-0.199987,0.044544,-0.841115,-37.782001,-23.562881,,,,,,,
1508522302.897637,-0.216336,1.458656,2.702894,1.552148,0.425813,0.404225,-0.024021,-0.993719,-0.109297,0.025425,0.393087,0.063231,-1.380500,-38.435081,-22.455181,,,,,,,
1508522302.917646,-0.389233,1.489695,2.882863,1.786632,0.157771,0.344203,-0.030743,-0.996713,-0.074953,0.039928,0.426797,0.168383,-1.511214,-39.154831,-21.166290,,,,,,,
1508522302.937643,-0.778636,1.518593,-3.012199,1.973298,-0.215503,0.259217,-0.036646,-0.998638,-0.037145,0.042490,0.381527,0.162145,-1.621733,-39.524525,-20.459190,,,,,,,
1508522302.957651,-1.666880,1.530409,-2.126518,2.039512,-0.089647,0.108665,-0.040190,-0.999185,0.003874,0.040678,0.108819,0.056109,-2.007877,-40.657467,-18.064756,,,,,,,
1508522302.977670,-2.361518,1.514462,-1.429249,1.621300,0.217875,-0.112827,-0.039601,-0.998414,0.040025,0.015644,-0.184265,-0.054398,-2.045459,-41.171597,-16.855625,,,,,,,
1508522302.997686,-2.624206,1.495706,-1.158137,1.099467,0.468825,-0.123333,-0.037105,-0.997182,0.065201,-0.040669,-0.268184,-0.074554,-1.924816,-41.572407,-15.856443,,,,,,,
1508522303.017677,-2.709520,1.475157,-1.064455,1.176546,0.296033,0.296681,-0.039988,-0.995430,0.086718,-0.134526,-0.095573,-0.121599,-1.672434,-42.092922,-14.449409,,,,,,,
1508522303.037696,-2.726551,1.446509,-1.045263,1.400925,0.012057,0.538951,-0.049987,-0.992286,0.113442,-0.098740,0.045478,-0.125009,-1.881018,-42.348072,-13.656473,,,,,,,
1508522303.057713,-2.740836,1.418905,-1.031615,1.215924,-0.053111,0.406411,-0.059028,-0.988487,0.139319,0.029654,0.061530,-0.107413,-2.319490,-42.686649,-12.484645,,,,,,,
1508522303.077698,-2.756221,1.395029,-1.017751,1.159670,-0.135154,0.328158,-0.065732,-0.984593,0.162039,0.174786,0.112065,-0.093084,-2.750928,-43.012844,-11.212669,,,,,,,
1508522303.097725,-2.785854,1.367966,-0.995562,1.460226,-0.591191,0.288770,-0.070159,-0.979500,0.188830,0.275207,0.122872,-0.058810,-2.829076,-43.072578,-10.961109,,,,,,,
1508522303.117716,-2.825204,1.335271,-0.974056,1.683985,-1.084062,0.337093,-0.072605,-0.972392,0.221771,0.278217,0.059169,-0.069489,-3.265772,-43.401321,-9.436986,,,,,,,
1508522303.137739,-2.862213,1.300424,-0.961839,1.708501,-1.328221,0.391412,-0.073653,-0.963671,0.256735,-0.022096,0.013171,-0.113256,-3.985382,-43.781551,-7.119611,,,,,,,
1508522303.157763,-2.888667,1.265690,-0.960584,1.659306,-1.147346,0.463546,-0.075170,-0.953815,0.290837,-0.107005,-0.002789,-0.127965,-4.520345,-43.959751,-5.522982,,,,,,,
1508522303.177769,-2.900283,1.233245,-0.965704,1.447183,-0.633103,0.452601,-0.079143,-0.943568,0.321582,-0.105107,-0.117268,-0.173129,-4.783587,-44.022358,-4.748232,,,,,,,
1508522303.197761,-2.906329,1.210012,-0.969039,0.896979,-0.428527,0.239524,-0.082286,-0.935620,0.343284,0.049159,-0.287479,-0.487495,-5.405170,-44.113510,-2.859838,,,,,,,
1508522303.217792,-2.921218,1.199004,-0.966088,0.354561,-0.742520,-0.015406,-0.079413,-0.931678,0.354500,0.031775,-0.289895,-0.584679,-5.536494,-44.128815,-2.321883,,,,,,,
1508522303.237797,-2.942282,1.198744,-0.960577,-0.182945,-0.735187,-0.126311,-0.071976,-0.931583,0.356331,-0.082275,-0.296139,-0.604897,-5.552825,-44.141380,-2.025156,,,,,,,
1508522303.257795,-2.953374,1.211783,-0.956949,-0.896443,-0.132837,-0.231831,-0.065741,-0.936244,0.345145,-0.180338,-0.461125,-0.766517,-5.405278,-44.146255,-2.299522,,,,,,,
1508522303.397858,3.057730,1.429526,-0.826589,-2.583138,-2.496185,-0.086765,0.011794,-0.990038,0.140307,-0.464034,-0.924254,0.681105,-4.323417,-43.011131,-10.712004,,,,,,,
1508522303.277821,-2.953593,1.232294,-0.952400,-0.925337,0.282428,-0.266892,-0.062063,-0.943253,0.326224,-0.217692,-0.439910,-0.796469,-5.235137,-44.127991,-2.951316,,,,,,,
1508522303.297830,-2.960657,1.248011,-0.945141,-0.704664,-0.263722,-0.265484,-0.057082,-0.948355,0.312031,-0.076570,-0.352960,-0.738545,-5.045838,-44.103428,-3.580985,,,,,,,
1508522303.317820,-2.986179,1.266173,-0.933631,-1.029907,-0.933288,-0.399638,-0.046426,-0.953960,0.296319,0.563409,-0.425435,-0.457757,-4.720795,-44.050999,-4.540929,,,,,,,
1508522303.337850,-3.030724,1.296064,-0.909153,-1.672604,-1.094020,-0.588201,-0.030016,-0.962498,0.269623,0.683077,-0.333523,-0.213685,-4.385290,-43.967484,-5.570087,,,,,,,
1508522303.357860,-3.080752,1.335864,-0.883970,-2.080530,-1.473483,-0.406590,-0.014154,-0.972530,0.232346,0.541467,-0.318913,-0.096162,-4.198254,-43.888977,-6.287184,,,,,,,
1508522303.377871,3.141219,1.380261,-0.861561,-2.288015,-2.245197,-0.266210,0.000071,-0.981903,0.189384,-0.141169,-0.744919,0.425637,-4.054934,-43.461067,-8.836828,,,,,,,
1508522303.417871,3.029662,1.486292,-0.841367,-3.003307,-1.751751,0.685464,0.009428,-0.996432,0.083876,-0.461668,-0.917860,0.737535,-4.593447,-42.717842,-11.725304,,,,,,,
1508522303.437903,-2.630720,1.553870,-1.481918,-3.684817,-0.392814,0.947052,-0.008276,-0.999857,0.014764,-0.287470,-0.284964,0.475729,-6.077394,-41.331989,-15.431411,,,,,,,
1508522303.457893,-0.362297,1.508287,2.533297,-3.525736,0.255731,0.513375,-0.022140,-0.998047,-0.058413,-0.158737,-0.087433,0.463687,-6.770504,-39.975418,-18.426144,,,,,,,
1508522303.477902,-0.209688,1.447679,2.391374,-2.910842,0.736158,0.071622,-0.025563,-0.992431,-0.120117,-0.074367,-0.034608,0.512863,-6.886510,-39.284420,-19.816824,,,,,,,
1508522303.497904,-0.135844,1.394639,2.335673,-2.607591,1.021883,0.105219,-0.023733,-0.984524,-0.173633,0.086843,0.092404,0.483386,-6.503528,-37.424244,-23.249224,,,,,,,
1508522303.517939,-0.114711,1.342031,2.335086,-2.631606,1.000790,0.448917,-0.025956,-0.973947,-0.225284,0.045366,0.165491,0.495533,-6.175982,-36.129505,-25.296495,,,,,,,
1508522303.537948,-0.113373,1.288181,2.351994,-2.627370,0.816173,0.514827,-0.031548,-0.960329,-0.277078,0.012627,0.180697,0.551919,-6.175982,-36.129505,-25.296495,,,,,,,
1508522303.557932,-0.104881,1.237295,2.360946,-2.408836,0.918480,0.336766,-0.034270,-0.944902,-0.325555,-0.014634,0.334993,0.630502,-5.988014,-33.918205,-28.232880,,,,,,,
1508522303.577968,-0.081406,1.195790,2.361814,-1.819946,1.444389,0.137594,-0.029784,-0.930505,-0.365066,-0.110856,0.490137,0.724715,-4.700198,-32.927361,-29.434715,,,,,,,
1508522303.597965,-0.040758,1.167343,2.358500,-1.193908,2.106357,-0.032421,-0.015997,-0.919711,-0.392271,-0.146692,0.507296,0.748579,-4.280110,-32.405052,-30.071564,,,,,,,
1508522303.617987,0.012100,1.150512,2.352781,-0.646660,2.528517,-0.135123,0.004937,-0.912973,-0.407991,-0.186593,0.502405,0.732255,-2.255566,-31.369982,-31.361477,,,,,,,
1508522303.637997,0.074482,1.142810,2.342527,-0.229070,2.663720,-0.293415,0.030885,-0.909803,-0.413889,-0.178834,0.491651,0.711496,-0.948457,-31.122078,-31.673683,,,,,,,
1508522303.657994,0.140894,1.141629,2.324003,0.105662,2.306154,-0.420821,0.058434,-0.909312,-0.411991,-0.081887,0.426769,0.639301,0.452008,-31.013361,-31.791077,,,,,,,
1508522303.678019,0.192310,1.145848,2.306498,0.343193,1.398459,-0.214051,0.078797,-0.911060,-0.404673,0.180481,0.291492,0.424555,2.867059,-31.121099,-31.558874,,,,,,,
1508522303.698026,0.208953,1.154760,2.302380,0.529544,0.186350,0.120900,0.083833,-0.914698,-0.395348,0.280959,0.262339,0.244087,3.510319,-31.371674,-31.244221,,,,,,,
1508522303.718034,0.192532,1.170052,2.308082,0.859796,-1.007052,0.359097,0.074644,-0.920771,-0.382896,0.275408,0.234308,0.143821,3.475477,-31.552536,-31.065479,,,,,,,
1508522303.738046,0.139724,1.193074,2.327217,1.186720,-2.180021,0.667555,0.051364,-0.929507,-0.365210,0.165143,0.058337,-0.073266,2.023053,-32.417664,-30.293690,,,,,,,
1508522303.758033,0.056306,1.216257,2.361918,0.906879,-2.630225,0.689394,0.019537,-0.937807,-0.346608,0.213419,-0.042723,-0.273433,0.599855,-32.969490,-29.754971,,,,,,,
1508522303.778064,-0.005683,1.224970,2.383147,0.154448,-1.504511,0.169763,-0.001927,-0.940796,-0.338969,0.254490,-0.471359,-1.063543,-1.307161,-33.437981,-29.204422,,,,,,,
1508522303.798075,-0.003529,1.223677,2.381929,-0.125276,0.882892,-0.077762,-0.001200,-0.940357,-0.340188,-0.077214,-0.444226,-0.865165,-1.996002,-33.483910,-29.112694,,,,,,,
1508522303.818061,0.022320,1.221659,2.379693,-0.081849,1.014921,0.014265,0.007635,-0.939668,-0.342003,-0.149816,-0.252440,-0.619637,-1.465231,-33.433754,-29.201759,,,,,,,
1508522303.838093,0.025578,1.218516,2.387757,-0.233023,0.363342,0.189272,0.008824,-0.938588,-0.344927,-0.022939,0.019048,-0.260664,-1.031830,-33.394333,-29.265326,,,,,,,
1508522303.858104,0.021214,1.212390,2.402462,-0.331303,0.621930,0.300454,0.007441,-0.936457,-0.350703,-0.002634,0.140757,0.111659,-0.890701,-33.270473,-29.410677,,,,,,,
1508522303.878113,0.016012,1.206746,2.426283,-0.259341,0.962379,0.454629,0.005701,-0.934462,-0.356016,-0.001627,0.048507,0.282301,-0.630767,-32.986053,-29.735970,,,,,,,
1508522303.898124,0.015537,1.204911,2.445765,0.048853,0.739448,0.242991,0.005559,-0.933807,-0.357733,-0.036152,-0.035721,0.219092,-0.630767,-32.986053,-29.735970,,,,,,,
1508522303.918131,0.016199,1.215154,2.454345,0.878725,0.353055,0.139889,0.005640,-0.937423,-0.348147,-0.601160,-0.511491,0.098086,-0.138408,-33.057289,-29.663139,,,,,,,
1508522303.938143,0.029255,1.238696,2.454278,1.131128,1.008669,-0.081128,0.009537,-0.945360,-0.325890,-0.662704,-0.733809,0.275597,0.092745,-33.709778,-28.919676,,,,,,,
1508522303.958134,0.093857,1.260532,2.422682,1.192326,1.929866,-0.634658,0.028613,-0.952253,-0.303966,-0.155307,-0.532442,0.602520,0.485724,-34.025288,-28.543816,,,,,,,
1508522303.978139,0.158692,1.273157,2.388442,0.125917,1.233310,-0.093515,0.046344,-0.956031,-0.289580,0.677015,0.241920,0.478270,2.528943,-34.847843,-27.421482,,,,,,,
1508522303.998173,0.095033,1.261601,2.441746,-0.823300,-1.799303,1.075029,0.028874,-0.952579,-0.302919,0.742290,0.398502,0.639848,2.615854,-34.738022,-27.552362,,,,,,,
1508522304.018162,0.006676,1.266192,2.507565,0.955627,-0.350020,0.811846,0.002002,-0.953966,-0.299909,0.471646,0.874574,0.288175,0.964046,-34.450115,-28.017235,,,,,,,
1508522304.038169,-0.003751,1.306526,2.522541,2.418940,0.095295,-0.124426,-0.000980,-0.965283,-0.261203,-0.299832,0.247128,0.659900,0.377968,-35.419605,-26.795788,,,,,,,
1508522304.058202,0.025683,1.352519,2.500196,2.130288,0.724990,-0.244519,0.005561,-0.976272,-0.216477,-0.442344,-0.102265,0.763855,0.542220,-36.364513,-25.495758,,,,,,,
1508522304.078190,0.057771,1.387699,2.484343,1.499455,0.670083,0.059008,0.010513,-0.983284,-0.181772,-0.684234,-0.700538,0.066599,1.069034,-37.381744,-23.961800,,,,,,,
1508522304.098218,0.027120,1.407734,2.514343,0.742434,-0.466165,0.375583,0.004402,-0.986735,-0.162281,-0.232002,-0.231130,0.114887,1.117424,-38.134945,-22.741653,,,,,,,
1508522304.118232,-0.042720,1.422705,2.567518,0.910765,-0.983293,0.466019,-0.006301,-0.989055,-0.147416,0.128707,0.165416,0.067948,0.678592,-38.374977,-22.351873,,,,,,,
1508522304.138241,-0.167323,1.449208,2.678818,1.643831,-0.530490,0.648096,-0.020200,-0.992617,-0.119595,0.189389,0.353259,0.089215,0.091690,-38.684418,-21.822304,,,,,,,
1508522304.158252,-0.377582,1.480248,2.878759,1.781407,-0.670037,0.559687,-0.033337,-0.995903,-0.084055,0.079159,0.340950,0.116343,-1.012346,-39.694862,-19.899715,,,,,,,
1508522304.178260,-0.758267,1.505563,-3.038223,1.846504,-0.801963,0.513276,-0.044827,-0.997873,-0.047328,-0.041385,0.229578,0.080470,-1.727061,-40.368561,-18.441856,,,,,,,
1508522304.198270,-1.394891,1.515822,-2.414193,1.815751,-0.563410,0.373721,-0.054098,-0.998489,-0.009616,-0.094599,0.174805,0.047686,-2.074913,-40.694633,-17.673344,,,,,,,
1508522304.218281,-1.956838,1.509046,-1.856968,1.495684,-0.106677,0.001958,-0.057170,-0.998094,0.023236,-0.127965,-0.111952,0.001956,-2.712838,-41.547783,-15.463746,,,,,,,
1508522304.238290,-2.319525,1.498493,-1.490675,1.214933,0.267417,-0.300334,-0.052920,-0.997387,0.049175,-0.052793,-0.241871,0.022542,-2.721413,-41.662281,-15.151033,,,,,,,
1508522304.258285,-2.522780,1.483949,-1.279329,1.038634,0.393972,0.015600,-0.050314,-0.996231,0.070654,-0.017130,-0.107300,-0.004446,-2.414570,-42.140373,-13.822611,,,,,,,
1508522304.278300,-2.583823,1.461829,-1.211385,1.201844,0.287157,0.481095,-0.057562,-0.994069,0.092269,-0.060053,0.145421,-0.038436,-2.385812,-42.557289,-12.485620,,,,,,,
1508522304.298321,-2.624801,1.432313,-1.165403,1.518114,0.182906,0.487886,-0.068205,-0.990427,0.120014,-0.031999,0.140604,-0.057499,-2.759471,-42.849098,-11.359831,,,,,,,
1508522304.318320,-2.672214,1.400512,-1.116439,1.588663,-0.034181,0.392477,-0.076653,-0.985537,0.151135,0.069405,0.051851,-0.056347,-2.945412,-43.005440,-10.703374,,,,,,,
1508522304.338328,-2.711921,1.367617,-1.079154,1.669612,-0.209391,0.426020,-0.084058,-0.979430,0.183443,0.255170,-0.042253,-0.041353,-3.481848,-43.431122,-8.620895,,,,,,,
1508522304.358349,-2.742622,1.332324,-1.054720,1.745253,-0.480141,0.478612,-0.091764,-0.971700,0.217666,0.262998,-0.015010,-0.099518,-3.802062,-43.611710,-7.501239,,,,,,,
1508522304.378361,-2.778480,1.296533,-1.036728,1.732900,-1.200524,0.441764,-0.096198,-0.962625,0.253178,0.067420,0.075036,-0.167943,-4.164715,-43.764198,-6.328959,,,,,,,
1508522304.398356,-2.815950,1.261404,-1.026774,1.682893,-1.407516,0.480590,-0.097408,-0.952519,0.288478,-0.045216,-0.014003,-0.219600,-4.938519,-43.967827,-3.891920,,,,,,,
1508522304.418380,-2.840643,1.227745,-1.026300,1.520820,-1.068424,0.515710,-0.099707,-0.941733,0.321245,-0.019632,-0.126825,-0.265337,-5.461335,-44.017513,-2.310353,,,,,,,
1508522304.458398,-2.874083,1.183847,-1.026944,0.688942,-0.932587,0.045783,-0.099749,-0.926064,0.363943,-0.022504,-0.293357,-0.370657,-6.159112,-43.985970,-0.074373,,,,,,,
1508522304.438388,-2.854475,1.200854,-1.030039,1.097133,-0.777575,0.385728,-0.102390,-0.932348,0.346761,0.060596,-0.193949,-0.306920,-5.705513,-44.017982,-1.603015,,,,,,,
1508522304.478400,-2.905172,1.175015,-1.016808,0.344316,-1.107155,-0.105194,-0.090301,-0.922696,0.374805,-0.152085,-0.283725,-0.385547,-6.144219,-43.986126,0.418233,,,,,,,
1508522304.498418,-2.927297,1.173115,-1.010357,-0.003062,-0.568366,-0.104459,-0.082359,-0.921961,0.378423,-0.104546,-0.330587,-0.536458,-6.066998,-43.992531,0.744613,,,,,,,
1508522304.518429,-2.935122,1.177572,-1.005401,-0.346106,0.039252,-0.166457,-0.078552,-0.923678,0.375030,-0.148209,-0.502362,-0.916229,-5.903284,-44.014118,0.783855,,,,,,,
1508522304.538438,-2.933565,1.194070,-1.003933,-1.098877,0.161686,-0.204521,-0.075978,-0.929874,0.359947,-0.271983,-0.594113,-1.211799,-5.739501,-44.042145,0.230381,,,,,,,
1508522304.558446,-2.927800,1.223863,-1.008333,-1.635341,-0.007110,-0.252731,-0.072140,-0.940420,0.332275,-0.188220,-0.557993,-1.183425,-5.646668,-44.053707,-0.302373,,,,,,,
1508522304.578458,-2.930859,1.260781,-1.011435,-1.944644,-0.455879,-0.432371,-0.063814,-0.952329,0.298324,0.567156,-0.384265,-0.731185,-5.427080,-44.049725,-1.695401,,,,,,,
1508522304.598468,-2.956063,1.304528,-0.998696,-2.136769,-0.776406,-0.680155,-0.048539,-0.964760,0.258618,0.815370,-0.119805,-0.174008,-4.845535,-43.947002,-4.229337,,,,,,,
1508522304.618455,-3.001817,1.348160,-0.974877,-2.132325,-1.457051,-0.591195,-0.030762,-0.975319,0.218648,0.603165,-0.266823,0.004420,-4.585029,-43.879856,-5.122625,,,,,,,
1508522304.638468,-3.085214,1.396576,-0.937930,-2.558427,-2.932652,-0.661842,-0.009768,-0.984862,0.173065,0.072725,-1.166826,0.624833,-4.130255,-43.529209,-7.800915,,,,,,,
1508522304.658497,3.024940,1.453250,-0.839296,-3.000066,-4.093909,-0.461935,0.013650,-0.993099,0.116479,-0.064446,-1.265690,0.917823,-4.156795,-43.100719,-9.887100,,,,,,,
1508522304.678501,2.930718,1.518491,-0.811661,-3.392051,-2.567261,1.018108,0.010943,-0.998632,0.051123,-0.145373,-1.047709,1.029260,-4.156795,-43.100719,-9.887100,,,,,,,
1508522304.698507,-0.554565,1.541441,2.645959,-4.052430,-0.877952,1.279056,-0.015456,-0.999569,-0.024953,-0.147844,-0.247471,0.571797,-6.573959,-41.257954,-15.075466,,,,,,,
1508522304.718527,-0.272340,1.458213,2.353270,-4.097932,-0.337253,0.353826,-0.030219,-0.993669,-0.108205,-0.062508,0.018694,0.384145,-7.545625,-39.728592,-18.368671,,,,,,,
1508522304.738522,-0.168248,1.389161,2.249437,-3.137110,0.339552,-0.079600,-0.030249,-0.983550,-0.178088,-0.038690,0.088240,0.408511,-7.699807,-38.942200,-19.922943,,,,,,,
1508522304.758547,-0.133412,1.336833,2.224432,-2.410762,0.545740,0.360968,-0.030838,-0.972755,-0.229775,0.003876,0.089683,0.462472,-7.492456,-36.952747,-23.474735,,,,,,,
1508522304.778541,-0.152108,1.287705,2.252396,-2.438095,0.332806,0.830133,-0.042324,-0.960196,-0.276101,-0.026157,0.151893,0.632912,-7.688443,-35.706627,-25.271135,,,,,,,
1508522304.798566,-0.168980,1.234183,2.274905,-2.641113,0.201682,0.668647,-0.055548,-0.943879,-0.325588,-0.037531,0.125397,0.725414,-7.904225,-35.004818,-26.170433,,,,,,,
1508522304.818576,-0.161664,1.183108,2.275055,-2.375498,0.562449,0.283545,-0.060851,-0.925785,-0.373120,-0.078874,0.333592,0.763287,-8.306468,-32.719032,-28.864738,,,,,,,
1508522304.838569,-0.131130,1.142014,2.265335,-1.873974,1.417512,0.023210,-0.054363,-0.909473,-0.412194,-0.088505,0.474719,0.842294,-8.070623,-31.699535,-30.045134,,,,,,,
1508522304.858595,-0.076992,1.111868,2.253621,-1.272720,2.659535,-0.144441,-0.034073,-0.896528,-0.441675,-0.149414,0.617292,0.970377,-7.424858,-30.837389,-31.090714,,,,,,,
1508522304.878580,-0.000513,1.097414,2.242778,-0.404221,3.683870,-0.246166,-0.000234,-0.890032,-0.455899,-0.258555,0.753038,0.949277,-4.613403,-29.771606,-32.635460,,,,,,,
1508522304.898597,0.088725,1.096699,2.230323,0.133497,3.919304,-0.291584,0.040453,-0.889705,-0.454740,-0.237627,0.704082,0.859159,-1.923098,-29.686037,-32.981003,,,,,,,
1508522304.918625,0.172079,1.100320,2.216657,0.261556,3.186382,-0.247426,0.077621,-0.891352,-0.446616,-0.190185,0.623606,0.813148,-0.554556,-29.741110,-32.982788,,,,,,,
1508522304.938637,0.221018,1.106352,2.211286,0.342751,1.579029,0.055480,0.098195,-0.894071,-0.437030,0.171427,0.350644,0.514041,1.770190,-29.901630,-32.794273,,,,,,,
1508522304.958645,0.226362,1.117287,2.212678,0.693844,-0.458253,0.185672,0.098329,-0.898915,-0.426946,0.354918,0.132619,0.033803,2.986096,-30.296721,-32.340340,,,,,,,
1508522304.978642,0.190812,1.139101,2.216487,1.249091,-2.246753,0.402916,0.079354,-0.908258,-0.410817,0.296058,-0.047797,-0.351664,2.696465,-30.549822,-32.126984,,,,,,,
1508522304.998667,0.107643,1.167873,2.236032,1.237496,-3.682878,0.746712,0.042126,-0.919919,-0.389840,0.456973,-0.703449,-1.049476,-0.064848,-31.765162,-31.043129,,,,,,,
1508522305.018675,0.008017,1.183370,2.274016,0.533303,-2.535543,0.644875,0.003029,-0.925884,-0.377795,0.618019,-0.849628,-1.260694,-2.133740,-32.215366,-30.501196,,,,,,,
1508522305.038670,-0.009208,1.193738,2.277302,0.511208,0.268875,-0.308262,-0.003390,-0.929752,-0.368171,0.020465,-0.191922,-0.501687,-3.752582,-32.515007,-30.023293,,,,,,,
1508522305.058692,0.034888,1.198555,2.246464,0.066357,0.842830,-0.594722,0.012686,-0.931515,-0.363482,-0.173133,0.093914,-0.275022,-3.087126,-32.844376,-29.739235,,,,,,,
1508522305.078704,0.058412,1.195728,2.233420,-0.266789,0.445859,0.059175,0.021386,-0.930483,-0.365711,-0.172158,0.137621,-0.155651,-2.519651,-32.859871,-29.775589,,,,,,,
1508522305.098715,0.046962,1.184353,2.264836,-0.689041,1.258123,0.785654,0.017693,-0.926255,-0.376481,-0.177514,0.224015,0.116486,-2.300388,-32.637638,-30.036613,,,,,,,
1508522305.118724,0.031386,1.183340,2.307244,0.463416,0.923474,0.652238,0.011857,-0.925873,-0.377649,-0.227387,0.242462,0.518564,-2.024820,-32.266014,-30.455050,,,,,,,
1508522305.138709,0.037960,1.219007,2.306525,2.549243,0.088226,-0.319259,0.013077,-0.938758,-0.344330,-0.187516,-0.465814,0.479691,-1.944738,-32.700081,-29.993803,,,,,,,
1508522305.158745,0.085130,1.262110,2.266023,1.202279,0.726879,-0.468311,0.025832,-0.952733,-0.302707,-0.051741,-1.309412,0.087680,-1.735327,-33.799858,-28.762196,,,,,,,
1508522305.178756,0.130456,1.263010,2.247166,-0.018889,1.719625,-0.198678,0.039410,-0.953007,-0.300375,0.258655,-0.598889,0.424048,-0.558010,-34.704243,-27.712990,,,,,,,
1508522305.198739,0.160642,1.267309,2.251306,0.242323,1.278368,0.336582,0.047802,-0.954300,-0.295002,0.555180,0.215851,0.276890,0.476260,-34.780582,-27.618649,,,,,,,
1508522305.218775,0.091092,1.274771,2.311097,0.356204,-1.531840,1.166962,0.026537,-0.956504,-0.290511,0.500380,0.519629,0.545867,0.565251,-34.845181,-27.535419,,,,,,,
1508522305.238785,0.014405,1.292717,2.369097,1.232956,-0.449677,0.591538,0.003954,-0.961584,-0.274481,0.014280,0.802222,0.794210,-1.406503,-35.242634,-26.994148,,,,,,,
1508522305.258794,-0.004980,1.332959,2.396807,2.421187,0.750044,0.263664,-0.001173,-0.971850,-0.235598,-0.578691,0.048312,0.759478,-1.687142,-36.132809,-25.773615,,,,,,,
1508522305.278804,0.019088,1.384560,2.398254,2.513029,1.512501,-0.110856,0.003534,-0.982708,-0.185128,-0.673899,-0.226169,0.547677,-1.687142,-36.132809,-25.773615,,,,,,,
1508522305.298807,0.072270,1.423319,2.370000,1.497522,0.898041,-0.084566,0.010610,-0.989145,-0.146560,-0.675054,-0.732352,0.083175,-0.832647,-37.972164,-23.024483,,,,,,,
1508522305.318824,0.077507,1.440616,2.368878,0.607504,-0.124773,0.144752,0.010051,-0.991538,-0.129424,0.096150,-0.194985,0.197203,-0.268643,-38.894321,-21.444469,,,,,,,
1508522305.338810,0.007363,1.452876,2.432580,0.721842,-0.349575,0.583135,0.000866,-0.993056,-0.117644,0.264454,-0.001802,0.115507,-0.388264,-39.016045,-21.220348,,,,,,,
1508522305.358836,-0.153110,1.477648,2.590202,1.639166,-0.115604,0.795315,-0.014186,-0.995665,-0.091925,0.358561,0.368010,0.040778,-1.272553,-39.556423,-20.158756,,,,,,,
1508522305.378854,-0.513428,1.509555,2.945881,2.014225,-0.427290,0.731097,-0.030061,-0.998125,-0.053312,0.296922,0.341067,0.071256,-1.983744,-40.244011,-18.686615,,,,,,,
1508522305.398838,-1.267434,1.527031,-2.595242,1.946752,-0.760774,0.442807,-0.041754,-0.999042,-0.013070,0.071218,0.177601,0.148507,-2.532433,-40.767456,-17.444395,,,,,,,
1508522305.418854,-2.061043,1.519021,-1.819305,1.766535,-0.993614,0.057835,-0.045657,-0.998660,0.024367,0.008166,0.021792,0.098985,-3.225357,-41.523891,-15.429482,,,,,,,
1508522305.438883,-2.505406,1.497770,-1.392113,1.621912,-0.762545,-0.112478,-0.043349,-0.997335,0.058688,-0.031968,-0.067576,0.032926,-3.436659,-41.910908,-14.295829,,,,,,,
1508522305.458893,-2.694979,1.471474,-1.209667,1.480677,-0.176334,0.113590,-0.042828,-0.995072,0.089433,-0.241733,-0.109604,-0.085527,-3.547942,-42.352543,-12.898829,,,,,,,
1508522305.478904,-2.745293,1.441534,-1.160524,1.507676,-0.097507,0.482274,-0.049757,-0.991657,0.118912,-0.353609,0.039021,-0.127061,-3.820451,-42.780216,-11.312059,,,,,,,
1508522305.498908,-2.767037,1.407420,-1.144220,1.694088,-0.384311,0.517667,-0.059507,-0.986684,0.151374,-0.277239,0.102834,-0.153876,-4.181268,-43.001030,-10.302139,,,,,,,
1508522305.518925,-2.789489,1.371998,-1.129207,1.665344,-0.328056,0.499372,-0.068109,-0.980305,0.185375,-0.073324,0.085194,-0.130901,-4.572423,-43.213776,-9.185206,,,,,,,
1508522305.538934,-2.802245,1.339688,-1.120123,1.489697,-0.120026,0.419288,-0.076246,-0.973413,0.215994,0.112089,0.002649,-0.110952,-5.276746,-43.539455,-7.012652,,,,,,,
1508522305.558933,-2.812426,1.310514,-1.110790,1.376916,-0.040536,0.349209,-0.083191,-0.966317,0.243537,0.255417,-0.066947,-0.176200,-5.625749,-43.681206,-5.745299,,,,,,,
1508522305.578953,-2.823640,1.284015,-1.102261,1.223804,-0.264806,0.292409,-0.088430,-0.959159,0.268688,0.269338,-0.076241,-0.277889,-5.777617,-43.736015,-5.146401,,,,,,,
1508522305.598964,-2.837987,1.261736,-1.098535,0.992938,-0.694865,0.310408,-0.090934,-0.952620,0.290253,0.115149,-0.006532,-0.474304,-6.204793,-43.838257,-3.523266,,,,,,,
1508522305.618974,-2.847446,1.242228,-1.107013,0.832002,-0.968270,0.479232,-0.093555,-0.946505,0.308829,0.099765,-0.033262,-0.498831,-6.471977,-43.850288,-2.823312,,,,,,,
1508522305.638984,-2.852992,1.226754,-1.125118,0.520137,-1.220897,0.491373,-0.095998,-0.941399,0.323346,0.199849,-0.084465,-0.352994,-6.946514,-43.823437,-1.989467,,,,,,,
1508522305.658976,-2.866601,1.218289,-1.138128,0.293906,-1.315290,0.197695,-0.093749,-0.938510,0.332280,0.145141,-0.137814,-0.054173,-7.463812,-43.764893,-1.277227,,,,,,,
1508522305.679004,-2.898716,1.212123,-1.131317,0.307245,-1.232580,-0.147110,-0.084422,-0.936364,0.340729,0.015483,-0.216865,-0.055298,-7.535287,-43.764030,-0.796547,,,,,,,
1508522305.699009,-2.928005,1.213555,-1.120035,-0.269983,-0.700307,-0.221745,-0.074123,-0.936865,0.341745,-0.242207,-0.392557,-0.218912,-7.470770,-43.778305,-0.594126,,,,,,,
1508522305.719024,-2.937679,1.225027,-1.116580,-0.633494,-0.139961,-0.134884,-0.068633,-0.940815,0.331899,-0.278077,-0.310864,-0.753942,-7.215366,-43.816589,-0.866220,,,,,,,
1508522305.739034,-2.941539,1.238482,-1.114879,-0.705758,-0.165671,-0.206837,-0.064829,-0.945290,0.319725,-0.225057,-0.414985,-0.855263,-7.090872,-43.822861,-1.407811,,,,,,,
1508522305.759019,-2.952270,1.256317,-1.109806,-0.920645,-0.331500,-0.269427,-0.058212,-0.950958,0.303794,-0.175995,-0.406754,-0.806098,-7.090872,-43.822861,-1.407811,,,,,,,
1508522305.779054,-2.962468,1.280149,-1.102477,-1.324154,-0.015087,-0.376863,-0.051058,-0.958058,0.281988,0.337130,-0.436778,-0.647314,-6.643370,-43.815178,-2.966716,,,,,,,
1508522305.799064,-2.978974,1.309127,-1.084013,-1.329219,0.073544,-0.550392,-0.041883,-0.965959,0.255280,0.577512,-0.240370,-0.069917,-6.245237,-43.774384,-4.183999,,,,,,,
1508522305.819048,-3.003549,1.339032,-1.057650,-1.601748,-0.058000,-0.538899,-0.031607,-0.973263,0.227510,0.600028,-0.185291,0.105452,-5.999259,-43.749252,-4.766255,,,,,,,
1508522305.839084,-3.056465,1.379630,-1.019839,-2.173697,-1.380749,-0.667066,-0.016155,-0.981783,0.189316,0.237056,-0.410490,0.116470,-5.303324,-43.549419,-6.930239,,,,,,,
1508522305.859077,3.108529,1.427624,-0.947571,-2.457355,-2.741342,-0.637429,0.004717,-0.989768,0.142606,-0.128023,-0.772042,0.513324,-5.072546,-43.342560,-8.270261,,,,,,,
1508522305.879103,2.955823,1.477072,-0.844706,-2.555582,-2.161291,-0.040480,0.017286,-0.995611,0.091977,-0.426725,-0.871576,0.806033,-5.029822,-43.059616,-9.657953,,,,,,,
1508522305.899114,2.927404,1.533569,-0.839138,-2.940098,-0.535823,0.827479,0.007911,-0.999307,0.036369,-0.626197,-0.548483,0.695916,-5.776444,-42.162861,-12.713432,,,,,,,
1508522305.919123,-0.265674,1.543274,2.355672,-3.197797,0.356902,0.589654,-0.007225,-0.999621,-0.026553,-0.595833,-0.316907,0.616595,-6.356986,-41.461926,-14.601477,,,,,,,
1508522305.939133,-0.118821,1.483995,2.221353,-2.748667,0.765631,-0.026011,-0.010277,-0.996235,-0.086081,-0.262322,-0.052425,0.481299,-6.633602,-40.660091,-16.596922,,,,,,,
1508522305.959147,-0.034221,1.438108,2.154105,-2.101046,0.911235,-0.213274,-0.004526,-0.991210,-0.132222,-0.008291,-0.016862,0.537373,-6.159407,-39.214832,-19.923962,,,,,,,
1508522305.979153,-0.014644,1.396336,2.149564,-2.182578,0.642938,0.212813,-0.002542,-0.984820,-0.173558,0.180047,0.134128,0.626469,-5.747908,-38.365963,-21.626837,,,,,,,
1508522305.999150,-0.047205,1.348757,2.194445,-2.403682,0.552128,0.640011,-0.010392,-0.975450,-0.219974,0.178620,0.201189,0.664188,-5.747908,-38.365963,-21.626837,,,,,,,
1508522306.019175,-0.075427,1.302993,2.236584,-2.116234,0.718663,0.611632,-0.019940,-0.964354,-0.263862,0.012418,0.368529,0.659339,-5.983014,-36.069939,-25.216436,,,,,,,
1508522306.039186,-0.079741,1.266036,2.260204,-1.613446,1.029956,0.392422,-0.023902,-0.953919,-0.299111,-0.113259,0.412339,0.738366,-5.924276,-34.998398,-26.696831,,,,,,,
1508522306.059178,-0.065314,1.241508,2.271397,-0.948907,1.433676,0.199105,-0.021106,-0.946273,-0.322680,-0.173154,0.452422,0.818667,-5.763787,-34.562347,-27.293377,,,,,,,
1508522306.079204,-0.032424,1.232797,2.276253,-0.123838,2.181654,0.047835,-0.010750,-0.943420,-0.331426,-0.195152,0.611633,0.970815,-4.658943,-33.840435,-28.387051,,,,,,,
1508522306.099213,0.025679,1.235462,2.270849,0.196718,2.853136,-0.182191,0.008450,-0.944300,-0.328977,-0.061260,0.593424,0.891645,-3.223191,-33.873142,-28.546923,,,,,,,
1508522306.119222,0.099698,1.238587,2.256162,0.160495,3.029367,-0.220687,0.032461,-0.945324,-0.324513,0.005015,0.532406,0.773183,-2.326102,-33.933876,-28.561981,,,,,,,
1508522306.139234,0.167684,1.242790,2.241845,0.315165,2.419555,-0.207095,0.053768,-0.946686,-0.317638,0.181157,0.272385,0.305614,0.398300,-34.102531,-28.452839,,,,,,,
1508522306.159244,0.215669,1.251045,2.223614,0.532011,0.912094,-0.177696,0.067267,-0.949314,-0.307049,0.181268,0.012409,0.066479,1.626592,-34.328075,-28.136154,,,,,,,
1508522306.179254,0.217830,1.262221,2.217786,0.552377,-0.740584,0.217307,0.065633,-0.952767,-0.296525,0.196558,-0.126975,-0.064284,1.870204,-34.478081,-27.936886,,,,,,,
1508522306.199241,0.163009,1.269494,2.248097,0.038823,-1.588636,0.657490,0.048161,-0.954951,-0.292830,0.297511,-0.462072,-0.579699,0.928732,-34.870373,-27.493643,,,,,,,
1508522306.219250,0.077385,1.269697,2.297502,0.094271,-1.881738,0.694992,0.022927,-0.955011,-0.295682,0.239616,-0.304968,-0.622088,-0.181894,-34.838856,-27.548622,,,,,,,
1508522306.239283,0.031149,1.278869,2.329878,0.465527,-0.014481,0.355556,0.008963,-0.957691,-0.287659,0.159631,-0.162640,-0.448318,-1.289684,-34.871243,-27.477966,,,,,,,
1508522306.259294,0.029542,1.281507,2.340481,-0.092151,0.407702,0.092539,0.008426,-0.958447,-0.285147,-0.032138,-0.010044,-0.328897,-1.652080,-35.133068,-27.122753,,,,,,,
1508522306.279304,0.021502,1.275840,2.354720,-0.347979,0.295920,0.289450,0.006250,-0.956815,-0.290631,-0.059168,0.055997,-0.225956,-1.588892,-35.006119,-27.290157,,,,,,,
1508522306.299314,0.002971,1.268612,2.384245,-0.416617,0.600468,0.485027,0.000884,-0.954689,-0.297605,-0.038360,0.085426,-0.184527,-1.610932,-34.905266,-27.417746,,,,,,,
1508522306.319325,-0.005866,1.257192,2.415896,-0.483042,1.402583,0.490409,-0.001809,-0.951228,-0.308484,-0.041648,0.140711,-0.048846,-1.482815,-34.480000,-27.957762,,,,,,,
1508522306.339334,-0.011924,1.266665,2.448890,1.229362,0.910790,0.464776,-0.003571,-0.954107,-0.299443,-0.216598,0.561285,0.850926,-1.052807,-34.494911,-27.958868,,,,,,,
1508522306.359318,-0.016381,1.312904,2.459963,2.606392,0.206870,-0.121711,-0.004178,-0.966930,-0.255009,-0.150470,0.446010,0.963933,-1.052807,-34.494911,-27.958868,,,,,,,
1508522306.379343,0.005633,1.351096,2.442309,1.332959,0.381585,-0.173615,0.001228,-0.975963,-0.217934,0.117989,-0.809972,0.002952,-0.721385,-36.716125,-24.982220,,,,,,,
1508522306.399364,0.044142,1.341694,2.441459,-1.688356,3.093865,0.018575,0.010022,-0.973871,-0.226882,0.072742,-1.199622,-0.355073,-0.070015,-36.859028,-24.781300,,,,,,,
1508522306.419368,0.107493,1.311072,2.451146,-0.780258,3.363210,0.016691,0.027552,-0.966461,-0.255332,-0.176906,-0.543473,0.014396,1.261892,-36.148491,-25.775949,,,,,,,
1508522306.439386,0.149231,1.329820,2.450804,1.850374,1.278195,0.208253,0.035482,-0.971105,-0.235998,0.093134,0.344335,0.277975,3.031440,-36.107143,-25.686377,,,,,,,
1508522306.459395,0.140072,1.375082,2.470703,1.892424,0.036506,0.872062,0.027150,-0.980909,-0.192563,0.291194,0.590162,0.766812,3.168736,-37.222813,-24.023464,,,,,,,
1508522306.479404,0.010206,1.397498,2.592244,0.839230,-0.636525,1.155664,0.001760,-0.985021,-0.172424,0.309596,0.504675,0.784362,2.764217,-37.643913,-23.409403,,,,,,,
1508522306.499415,-0.100884,1.419520,2.698849,1.335955,0.031768,0.648128,-0.015178,-0.988579,-0.149934,0.155513,0.316033,0.323793,1.235480,-38.384735,-22.311237,,,,,,,
1508522306.519398,-0.223722,1.449552,2.830493,1.782889,0.486276,0.667067,-0.026833,-0.992659,-0.117933,-0.217612,-0.027254,0.196455,0.859264,-39.054615,-21.135374,,,,,,,
1508522306.539434,-0.441495,1.481341,3.057511,1.848206,0.259455,0.521565,-0.038172,-0.996002,-0.080770,-0.317510,-0.183442,0.137319,0.697920,-39.438698,-20.415867,,,,,,,
1508522306.559445,-0.712285,1.503931,-2.957020,1.249749,-0.349265,0.126468,-0.043668,-0.997765,-0.050570,-0.137591,-0.366630,0.141482,0.245149,-40.457390,-18.326067,,,,,,,
1508522306.579448,-0.925538,1.513561,-2.751739,0.562997,-0.418964,0.140977,-0.045703,-0.998362,-0.034403,0.077609,-0.084569,0.219660,0.036220,-40.803093,-17.544567,,,,,,,
1508522306.599464,-1.130065,1.513168,-2.553745,0.511411,-0.277894,0.373836,-0.052093,-0.998340,-0.024571,0.135375,0.084277,0.215092,-0.108965,-40.894165,-17.330931,,,,,,,
1508522306.619475,-1.410242,1.510512,-2.276621,0.886158,-0.126241,0.355750,-0.059473,-0.998183,-0.009632,0.054865,0.194045,0.102298,-0.677989,-41.185863,-16.612356,,,,,,,
1508522306.639486,-1.744028,1.502921,-1.945717,1.117213,-0.250542,0.388440,-0.066808,-0.997697,0.011690,-0.020885,0.025789,0.147047,-1.022743,-41.503464,-15.783605,,,,,,,
1508522306.659495,-1.984155,1.488378,-1.713291,0.952186,-0.516851,0.459279,-0.075391,-0.996606,0.033069,-0.049029,-0.039787,0.155362,-1.233791,-41.672325,-15.316683,,,,,,,
1508522306.679491,-2.110767,1.472953,-1.600122,0.743655,-0.790866,0.446704,-0.083789,-0.995217,0.050222,-0.006879,-0.157630,0.124567,-1.755040,-41.952106,-14.479161,,,,,,,
1508522306.699392,-2.184584,1.458180,-1.542616,0.589264,-0.828984,0.459242,-0.091866,-0.993666,0.064726,0.013909,0.028806,0.171144,-2.651508,-42.228580,-13.506366,,,,,,,
1508522306.719393,-2.222764,1.444652,-1.519986,0.482748,-0.748190,0.459489,-0.100006,-0.992054,0.076336,-0.035538,0.075276,0.198597,-2.651508,-42.228580,-13.506366,,,,,,,
1508522306.739388,-2.257243,1.432308,-1.499423,0.498875,-0.694383,0.355317,-0.106779,-0.990426,0.087493,-0.176729,0.114754,0.242250,-3.803526,-42.436886,-12.543898,,,,,,,
1508522306.759421,-2.301031,1.421160,-1.469068,0.555485,-0.669299,0.246135,-0.111066,-0.988825,0.099442,-0.193942,0.093562,0.226654,-4.236521,-42.538467,-12.051401,,,,,,,
1508522306.779421,-2.350373,1.408849,-1.431425,0.684242,-0.597047,0.269612,-0.114676,-0.986915,0.113349,-0.188516,0.004600,0.139016,-4.416903,-42.595840,-11.780949,,,,,,,
1508522306.799443,-2.392655,1.394775,-1.401152,0.652223,-0.655246,0.329994,-0.119228,-0.984548,0.128255,-0.039555,-0.019739,0.070490,-4.975405,-42.784943,-10.835117,,,,,,,
1508522306.819452,-2.420229,1.380827,-1.388732,0.585087,-0.830207,0.412358,-0.124704,-0.982010,0.141793,0.005548,-0.006241,0.045234,-5.439213,-42.875626,-10.237250,,,,,,,
1508522306.839461,-2.447507,1.364865,-1.377883,0.735161,-0.802583,0.435977,-0.130801,-0.978871,0.157170,0.025104,0.002370,0.019847,-5.704949,-42.912628,-9.933043,,,,,,,
1508522306.859473,-2.476936,1.347570,-1.362628,0.773475,-0.683705,0.411894,-0.136543,-0.975188,0.174252,0.014732,-0.029878,-0.040311,-6.479393,-43.041286,-8.841427,,,,,,,
1508522306.879484,-2.496081,1.330655,-1.356293,0.670023,-0.651470,0.500503,-0.143086,-0.971304,0.189985,0.021901,-0.033731,-0.076978,-6.838541,-43.095734,-8.288394,,,,,,,
1508522306.899491,-2.504182,1.315265,-1.363925,0.484817,-0.883909,0.532871,-0.150421,-0.967529,0.203128,0.035523,-0.008240,-0.077655,-7.240043,-43.123703,-7.786749,,,,,,,
1508522306.919503,-2.514306,1.304268,-1.375573,0.291462,-1.128592,0.390551,-0.154593,-0.964691,0.213242,0.078849,0.118179,0.017639,-8.093942,-43.109604,-6.982519,,,,,,,
1508522306.939489,-2.529450,1.296019,-1.380858,0.330994,-0.914509,0.251557,-0.155914,-0.962486,0.222064,0.051238,0.079139,0.037992,-8.524164,-43.093063,-6.559875,,,,,,,
1508522306.959522,-2.549373,1.286814,-1.377650,0.430021,-0.810568,0.218381,-0.156398,-0.959947,0.232467,0.008434,0.062364,0.026734,-8.686783,-43.094700,-6.331827,,,,,,,
1508522306.979534,-2.566863,1.276838,-1.375827,0.433103,-0.785935,0.275922,-0.157506,-0.957105,0.243193,-0.054957,0.002713,-0.019392,-3.055495,-41.905609,0.086769,,,,,,,
1508522306.999543,-2.581563,1.266378,-1.377488,0.413890,-0.836771,0.317250,-0.159224,-0.954022,0.253950,-0.038957,-0.004917,-0.029569,-3.294978,-41.884560,0.500245,,,,,,,
1508522307.019553,-2.592421,1.256501,-1.384100,0.346752,-0.872700,0.361388,-0.161368,-0.951015,0.263689,-0.020333,-0.007070,-0.033723,-3.425038,-41.871300,0.697652,,,,,,,
1508522307.039559,-2.602643,1.246466,-1.391523,0.382965,-0.841966,0.345739,-0.163555,-0.947864,0.273501,0.132549,-0.018048,-0.041766,-3.707604,-41.839668,1.058062,,,,,,,
1508522307.059574,-2.613645,1.237082,-1.396393,0.337242,-0.742303,0.282617,-0.165010,-0.944832,0.282956,0.116471,-0.003959,-0.066479,-4.095198,-41.785374,1.623391,,,,,,,
1508522307.079561,-2.624077,1.229562,-1.400392,0.287277,-0.704228,0.226866,-0.165559,-0.942342,0.290828,0.086244,-0.006587,-0.068309,-4.095198,-41.785374,1.623391,,,,,,,
1508522307.099582,-2.637077,1.221757,-1.402443,0.345888,-0.789259,0.223027,-0.165315,-0.939702,0.299385,0.014695,-0.002391,-0.010796,-4.440858,-41.720451,2.259727,,,,,,,
1508522307.119605,-2.653523,1.212937,-1.404599,0.376817,-1.007999,0.256124,-0.164249,-0.936649,0.309372,0.021381,0.004474,0.008010,-4.593933,-41.681503,2.640413,,,,,,,
1508522307.139615,-2.671207,1.203420,-1.409203,0.394874,-1.131030,0.315806,-0.162786,-0.933273,0.320160,0.087408,-0.003403,0.042144,-4.674593,-41.659027,2.845563,,,,,,,
1508522307.159614,-2.690464,1.192801,-1.414136,0.452448,-1.235219,0.301296,-0.160902,-0.929406,0.332136,0.156371,-0.037803,0.072619,-4.953449,-41.575108,3.520979,,,,,,,
1508522307.179635,-2.714111,1.182577,-1.416104,0.447283,-1.275861,0.222431,-0.156936,-0.925584,0.344477,0.149352,-0.049895,0.041753,-5.082853,-41.514153,4.020348,,,,,,,
1508522307.199643,-2.741423,1.172302,-1.413749,0.507062,-1.223136,0.119684,-0.151167,-0.921646,0.357374,0.093077,-0.035202,-0.043409,-5.118876,-41.484364,4.274128,,,,,,,
1508522307.219643,-2.769882,1.162376,-1.407273,0.502858,-1.061930,0.042045,-0.144252,-0.917749,0.370037,-0.055180,-0.069754,-0.130871,-5.093633,-41.396069,5.083710,,,,,,,
1508522307.239665,-2.797044,1.153193,-1.399187,0.468820,-0.953730,-0.008197,-0.136991,-0.914063,0.381735,-0.091037,-0.088531,-0.155279,-5.030029,-41.354404,5.471346,,,,,,,
1508522307.259674,-2.822157,1.144965,-1.391575,0.428325,-0.875104,-0.010601,-0.129719,-0.910696,0.392182,-0.147182,-0.130732,-0.161927,-4.944798,-41.315083,5.834083,,,,,,,
1508522307.279685,-2.843105,1.136939,-1.385517,0.414366,-0.693386,0.004328,-0.123621,-0.907351,0.401786,-0.182989,-0.235838,-0.193549,-4.780274,-41.236752,6.488663,,,,,,,
1508522307.299669,-2.857668,1.130109,-1.380960,0.296037,-0.409679,0.004630,-0.119490,-0.904459,0.409483,-0.146363,-0.293066,-0.300062,-4.705737,-41.184906,6.861708,,,,,,,
1508522307.319706,-2.862990,1.127071,-1.379500,0.080778,-0.070660,0.010563,-0.118065,-0.903159,0.412753,-0.092918,-0.280435,-0.359286,-4.682558,-41.166107,6.989193,,,,,,,
1508522307.339716,-2.863086,1.128036,-1.377427,-0.126752,0.163799,-0.111289,-0.117785,-0.903573,0.411926,0.099261,-0.420265,-0.483749,-4.658097,-41.154766,7.071843,,,,,,,
1508522307.359716,-2.864334,1.137337,-1.371263,-0.611899,0.228039,-0.345230,-0.114966,-0.907518,0.403972,0.235510,-0.456297,-0.599178,-4.525481,-41.212921,6.814582,,,,,,,
1508522307.379725,-2.868462,1.160274,-1.362007,-1.353593,0.191478,-0.583494,-0.107653,-0.916912,0.384295,0.304507,-0.428623,-0.661684,-4.386289,-41.275524,6.520374,,,,,,,
1508522307.399746,-2.879450,1.197396,-1.351696,-1.867363,-0.325032,-0.723348,-0.094534,-0.931092,0.352321,0.470678,-0.157744,-0.637996,-3.665575,-41.587509,4.739859,,,,,,,
1508522307.419756,-2.912605,1.236334,-1.335333,-1.756127,-1.215440,-0.756110,-0.074512,-0.944587,0.319692,0.456745,0.054145,-0.512365,-3.170135,-41.741756,3.605505,,,,,,,
1508522307.439766,-2.972808,1.271047,-1.307345,-1.521456,-1.943387,-0.791990,-0.049603,-0.955410,0.291085,0.361828,0.019269,-0.408898,-2.640991,-41.855843,2.556769,,,,,,,
1508522307.459751,-3.055578,1.304111,-1.265948,-1.680024,-2.230003,-0.755185,-0.022640,-0.964650,0.262561,-0.185994,-0.647456,0.325772,-1.914122,-41.952206,1.331206,,,,,,,
1508522307.479786,-3.136294,1.345160,-1.227814,-2.230210,-2.061539,-0.359255,-0.001186,-0.974652,0.223723,-0.404607,-0.606830,0.477082,-1.011077,-41.996960,-0.810408,,,,,,,
1508522307.499788,3.134525,1.394420,-1.244423,-2.572953,-0.964203,0.484153,0.001240,-0.984486,0.175459,-0.467198,-0.452587,0.486970,-1.011077,-41.996960,-0.810408,,,,,,,
1508522307.519783,-3.051889,1.448418,-1.345523,-2.784609,0.255918,0.613227,-0.010936,-0.992521,0.121583,-0.446294,0.004331,0.269989,-1.292784,-41.819870,-3.853643,,,,,,,
1508522307.539817,-2.871439,1.500428,-1.513867,-2.578577,0.820396,0.145803,-0.018764,-0.997525,0.067760,-0.383610,0.086041,0.232060,-1.891908,-41.336231,-7.291106,,,,,,,
1508522307.559827,-2.402444,1.544069,-1.962815,-2.332229,1.143170,-0.170278,-0.018003,-0.999643,0.019751,-0.351809,0.061105,0.286371,-1.891908,-41.336231,-7.291106,,,,,,,
1508522307.579838,-0.451309,1.536575,2.392879,-2.651805,1.203075,-0.100468,-0.014923,-0.999415,-0.030789,-0.191849,-0.059469,0.296704,-1.351591,-40.432167,-11.350626,,,,,,,
1508522307.599849,-0.150407,1.481835,2.115786,-2.910805,1.238765,0.041161,-0.013312,-0.996046,-0.087841,-0.191125,-0.034304,0.329220,-1.016445,-39.740143,-13.605563,,,,,,,
1508522307.619857,-0.083664,1.423745,2.076890,-2.871721,1.488767,0.148147,-0.012244,-0.989207,-0.146010,-0.231103,0.021281,0.384550,-0.774340,-39.104168,-15.352135,,,,,,,
1508522307.639868,-0.050441,1.370770,2.076786,-2.458799,1.768063,0.182645,-0.010018,-0.980061,-0.198442,-0.254096,0.106984,0.435488,-0.277072,-37.940922,-18.050850,,,,,,,
1508522307.659856,-0.017106,1.328386,2.082897,-1.918987,2.078759,0.102156,-0.004106,-0.970762,-0.240008,-0.222807,0.155561,0.428790,0.146095,-37.289761,-19.361713,,,,,,,
1508522307.679887,0.026282,1.295034,2.083717,-1.534425,2.255410,-0.056377,0.007155,-0.962218,-0.272186,-0.206664,0.159392,0.454285,0.710162,-36.716232,-20.416599,,,,,,,
1508522307.699899,0.073224,1.267578,2.080853,-1.278718,2.144569,-0.120364,0.021845,-0.954380,-0.297793,-0.102533,0.153752,0.435122,2.197196,-35.752838,-21.962027,,,,,,,
1508522307.719908,0.109603,1.243993,2.082860,-1.133858,1.733671,-0.034300,0.035114,-0.947073,-0.319091,-0.024586,0.150641,0.427855,3.168381,-35.205284,-22.715038,,,,,,,
1508522307.739918,0.126758,1.222593,2.093511,-1.048602,1.126428,0.095844,0.043135,-0.939987,-0.338472,0.020234,0.151398,0.430116,3.554524,-34.947453,-23.053511,,,,,,,
1508522307.759930,0.125982,1.204007,2.110569,-0.901622,0.572279,0.228666,0.045060,-0.933484,-0.355778,0.135573,0.211697,0.436298,4.179300,-34.236877,-23.995689,,,,,,,
1508522307.779939,0.112411,1.189065,2.132104,-0.709981,0.196515,0.343891,0.041788,-0.928021,-0.370176,0.163946,0.283093,0.453245,4.195925,-33.853840,-24.530296,,,,,,,
1508522307.799949,0.091525,1.179194,2.155251,-0.417108,-0.088195,0.386554,0.034884,-0.924299,-0.380072,0.167097,0.318311,0.472403,4.116227,-33.701252,-24.752895,,,,,,,
1508522307.819954,0.069049,1.176098,2.172928,-0.044093,-0.394744,0.272279,0.026530,-0.923113,-0.383613,0.194234,0.463304,0.402015,3.832189,-33.505280,-25.062607,,,,,,,
1508522307.839970,0.055641,1.180614,2.180051,0.407637,-0.274553,0.079121,0.021153,-0.924840,-0.379769,0.139477,0.367467,0.269463,3.321018,-33.538788,-25.090719,,,,,,,
1508522307.859975,0.060061,1.196979,2.176941,1.065566,0.372643,-0.057634,0.021919,-0.930940,-0.364513,0.057411,0.286928,0.158168,3.321018,-33.538788,-25.090719,,,,,,,
1508522307.879987,0.085014,1.219450,2.166861,0.979146,0.925962,-0.115425,0.029223,-0.938910,-0.342920,-0.059527,-0.262735,-0.485785,3.628474,-34.420837,-23.821499,,,,,,,
1508522307.900000,0.117246,1.226076,2.155463,-0.123920,1.212170,-0.171156,0.039531,-0.941170,-0.335613,-0.160518,-0.619758,-0.892185,4.203024,-34.703983,-23.310764,,,,,,,
1508522307.920000,0.144404,1.210769,2.160012,-0.946666,1.765987,0.105693,0.050697,-0.935887,-0.348633,-0.265174,-0.601390,-0.822281,4.555734,-34.627949,-23.357525,,,,,,,
